Accelerometer X	Accelerometer Y	Accelerometer Z	Gyroscope X	Gyroscope Y	Gyroscope Z	Roll	Pitch	Yaw	Time Stamp	    UTC Time	UTC Date
(m.s^-2)	(m.s^-2)	(m.s^-2)	(°.s^-1)	(°.s^-1)	(°.s^-1)	(°)	(°)	(°)	(s)	(HH:MM:SS.SS	(YYYY-MM-DD)
-0.376	0.015	-9.801	0.115643	0.229182	0.023691	0.004707	-2.184517	26.619216	638.538	01:22:13.290	2024-01-18
-0.331	-0.007	-9.784	0.063745	0.103040	0.023060	0.005299	-2.184506	26.619482	638.552	01:22:13.304	2024-01-18
-0.334	-0.005	-9.761	-0.168711	-0.288808	0.007598	0.003277	-2.189123	26.619409	638.566	01:22:13.318	2024-01-18
-0.372	0.015	-9.783	-0.291016	-0.545331	-0.070269	-0.000690	-2.196708	26.619151	638.580	01:22:13.332	2024-01-18
-0.407	0.040	-9.813	-0.211348	-0.323170	-0.010043	-0.003204	-2.200818	26.619160	638.594	01:22:13.346	2024-01-18
-0.411	0.049	-9.814	0.013725	0.192153	0.069822	-0.003349	-2.199637	26.619585	638.608	01:22:13.360	2024-01-18
-0.378	0.044	-9.809	0.148242	0.289619	0.015387	-0.004655	-2.202206	26.619641	638.622	01:22:13.374	2024-01-18
-0.427	0.059	-9.828	0.105121	0.310854	0.010869	-0.005961	-2.204776	26.619711	638.636	01:22:13.388	2024-01-18
-0.476	0.073	-9.846	0.062001	0.332089	0.006352	-0.007267	-2.207346	26.619774	638.650	01:22:13.402	2024-01-18
-0.525	0.088	-9.864	0.018880	0.353324	0.001834	-0.008572	-2.209915	26.619841	638.664	01:22:13.416	2024-01-18
-0.574	0.102	-9.883	-0.024241	0.374559	-0.002684	-0.009878	-2.212485	26.619906	638.678	01:22:13.430	2024-01-18
-0.491	0.087	-9.890	0.845722	2.109350	-0.039210	-0.005390	-2.202590	26.620140	638.692	01:22:13.444	2024-01-18
-0.380	0.029	-9.825	1.367840	3.038383	0.046354	0.013582	-2.161533	26.620806	638.706	01:22:13.458	2024-01-18
-0.226	-0.048	-9.728	1.117692	2.286343	0.098102	0.024947	-2.138636	26.621738	638.720	01:22:13.472	2024-01-18
-0.143	-0.092	-9.643	0.091918	0.164277	0.047708	0.025708	-2.137826	26.622092	638.734	01:22:13.486	2024-01-18
-0.220	-0.062	-9.648	-0.987509	-2.043807	-0.083446	0.014020	-2.162428	26.621637	638.748	01:22:13.500	2024-01-18
-0.383	0.014	-9.784	-1.350734	-2.701367	-0.108382	-0.003796	-2.199167	26.619926	638.762	01:22:13.514	2024-01-18
-0.517	0.095	-9.915	-0.780535	-1.626152	-0.062675	-0.011692	-2.215964	26.619044	638.776	01:22:13.528	2024-01-18
-0.555	0.102	-9.923	0.264405	0.583680	-0.008127	-0.009995	-2.213137	26.618962	638.790	01:22:13.542	2024-01-18
-0.445	0.049	-9.840	1.020115	2.156839	0.064238	0.004630	-2.182299	26.619897	638.804	01:22:13.556	2024-01-18
-0.371	0.006	-9.789	0.796380	1.705370	0.064422	0.011960	-2.166324	26.620065	638.818	01:22:13.570	2024-01-18
-0.320	-0.023	-9.759	0.303102	0.710870	0.011368	0.016373	-2.156294	26.619925	638.832	01:22:13.584	2024-01-18
-0.270	-0.052	-9.730	-0.190176	-0.283630	-0.041686	0.020786	-2.146264	26.619790	638.846	01:22:13.598	2024-01-18
-0.317	-0.020	-9.772	-0.523212	-1.035476	-0.076383	0.014527	-2.159069	26.618938	638.860	01:22:13.612	2024-01-18
-0.395	0.022	-9.810	-0.554235	-1.025301	-0.069699	0.008139	-2.172058	26.618212	638.874	01:22:13.626	2024-01-18
-0.412	0.054	-9.830	-0.223627	-0.445244	-0.037325	0.003951	-2.180219	26.617792	638.888	01:22:13.640	2024-01-18
-0.413	0.045	-9.818	0.071642	0.223067	0.017070	0.005915	-2.176052	26.617889	638.902	01:22:13.654	2024-01-18
-0.388	0.026	-9.800	0.247984	0.660066	0.024085	0.009010	-2.169174	26.618173	638.916	01:22:13.668	2024-01-18
-0.352	-0.007	-9.781	0.316216	0.650426	0.011840	0.012670	-2.160981	26.618506	638.930	01:22:13.682	2024-01-18
-0.328	-0.014	-9.772	0.131082	0.355558	-0.012084	0.014634	-2.157096	26.618229	638.944	01:22:13.696	2024-01-18
-0.338	-0.007	-9.762	-0.013604	-0.023605	-0.071364	0.014815	-2.156673	26.618014	638.958	01:22:13.710	2024-01-18
-0.342	-0.004	-9.773	-0.158014	-0.281337	-0.036333	0.014283	-2.157634	26.617823	638.972	01:22:13.724	2024-01-18
-0.343	-0.003	-9.771	-0.160787	-0.275784	-0.038656	0.013750	-2.158595	26.617630	638.986	01:22:13.738	2024-01-18
-0.343	-0.002	-9.768	-0.163560	-0.270232	-0.040979	0.013218	-2.159557	26.617437	639.000	01:22:13.752	2024-01-18
-0.344	-0.001	-9.766	-0.166333	-0.264679	-0.043302	0.012685	-2.160519	26.617244	639.014	01:22:13.766	2024-01-18
-0.345	0.000	-9.764	-0.169106	-0.259126	-0.045625	0.012153	-2.161480	26.617058	639.028	01:22:13.780	2024-01-18
-0.345	0.001	-9.761	-0.171879	-0.253573	-0.047948	0.011621	-2.162442	26.616865	639.042	01:22:13.794	2024-01-18
-0.346	0.003	-9.759	-0.174652	-0.248021	-0.050271	0.011088	-2.163403	26.616668	639.056	01:22:13.808	2024-01-18
-0.374	0.008	-9.787	-0.200597	-0.318111	-0.039085	0.010478	-2.164405	26.616450	639.070	01:22:13.822	2024-01-18
-0.387	0.030	-9.814	-0.100978	-0.094215	-0.031878	0.009403	-2.165653	26.616014	639.084	01:22:13.836	2024-01-18
-0.384	0.033	-9.816	0.116288	0.289284	0.014029	0.011079	-2.161923	26.615900	639.098	01:22:13.850	2024-01-18
-0.363	0.000	-9.809	0.252478	0.537566	0.010105	0.013970	-2.156266	26.616043	639.112	01:22:13.864	2024-01-18
-0.332	-0.025	-9.781	0.219126	0.438205	0.018697	0.017148	-2.150769	26.616504	639.126	01:22:13.878	2024-01-18
-0.333	-0.025	-9.758	-0.000376	0.050806	0.018680	0.016360	-2.152203	26.616656	639.140	01:22:13.892	2024-01-18
-0.341	-0.000	-9.770	-0.243374	-0.348764	-0.012575	0.013655	-2.156809	26.616504	639.154	01:22:13.906	2024-01-18
-0.372	0.033	-9.793	-0.302085	-0.511119	-0.023040	0.009275	-2.164099	26.616025	639.168	01:22:13.920	2024-01-18
-0.391	0.031	-9.820	-0.107653	-0.202182	0.000613	0.008611	-2.165907	26.616441	639.182	01:22:13.934	2024-01-18
-0.395	0.024	-9.805	0.056738	0.245483	0.040132	0.009599	-2.163393	26.617017	639.196	01:22:13.948	2024-01-18
-0.367	0.026	-9.793	0.206819	0.505698	0.024422	0.011723	-2.158014	26.617630	639.210	01:22:13.962	2024-01-18
-0.341	0.018	-9.771	0.129828	0.316206	0.010293	0.013242	-2.154892	26.617561	639.224	01:22:13.976	2024-01-18
-0.354	0.003	-9.769	0.031747	0.006816	-0.010134	0.013294	-2.155147	26.617278	639.238	01:22:13.990	2024-01-18
-0.351	-0.000	-9.786	-0.102804	-0.093553	-0.031323	0.012522	-2.157049	26.616988	639.252	01:22:14.004	2024-01-18
-0.360	0.004	-9.789	-0.085555	-0.130785	-0.031878	0.011161	-2.159688	26.616955	639.266	01:22:14.018	2024-01-18
-0.360	0.018	-9.789	-0.069587	-0.124493	0.020834	0.010511	-2.161584	26.617288	639.280	01:22:14.032	2024-01-18
-0.375	0.016	-9.796	0.010584	-0.027823	0.017217	0.010450	-2.162440	26.617592	639.294	01:22:14.046	2024-01-18
-0.367	0.003	-9.793	0.050651	0.094375	0.043538	0.011017	-2.162074	26.617785	639.308	01:22:14.060	2024-01-18
-0.366	0.007	-9.794	0.054807	0.129418	0.037374	0.011548	-2.160942	26.617729	639.322	01:22:14.074	2024-01-18
-0.366	0.011	-9.796	0.058963	0.164460	0.031209	0.012078	-2.159810	26.617667	639.336	01:22:14.088	2024-01-18
-0.366	0.015	-9.798	0.063118	0.199502	0.025045	0.012609	-2.158678	26.617616	639.350	01:22:14.102	2024-01-18
-0.366	0.019	-9.799	0.067274	0.234544	0.018880	0.013140	-2.157546	26.617555	639.364	01:22:14.116	2024-01-18
-0.366	0.024	-9.801	0.071430	0.269587	0.012716	0.013671	-2.156414	26.617500	639.378	01:22:14.130	2024-01-18
-0.366	0.028	-9.802	0.075585	0.304629	0.006552	0.014202	-2.155282	26.617444	639.392	01:22:14.144	2024-01-18
-0.362	0.026	-9.794	0.153509	0.397975	0.015062	0.014733	-2.154149	26.617389	639.406	01:22:14.158	2024-01-18
-0.349	0.008	-9.779	0.188881	0.415614	-0.033489	0.016666	-2.150403	26.617324	639.420	01:22:14.172	2024-01-18
-0.349	-0.020	-9.775	0.114675	0.273056	-0.002044	0.017725	-2.147783	26.617397	639.434	01:22:14.186	2024-01-18
-0.338	-0.011	-9.784	-0.054158	0.037593	0.001663	0.017307	-2.147245	26.617657	639.448	01:22:14.200	2024-01-18
-0.335	0.020	-9.783	-0.161364	-0.161569	0.012084	0.015304	-2.150891	26.617672	639.462	01:22:14.214	2024-01-18
-0.357	0.028	-9.787	-0.125841	-0.226348	0.004981	0.013741	-2.153962	26.617621	639.476	01:22:14.228	2024-01-18
-0.380	0.015	-9.799	-0.032448	-0.093988	-0.009012	0.012938	-2.155700	26.617570	639.490	01:22:14.242	2024-01-18
-0.386	0.021	-9.811	0.078285	0.258462	0.018917	0.014721	-2.152037	26.617792	639.504	01:22:14.256	2024-01-18
-0.371	0.016	-9.801	0.222985	0.545924	0.011281	0.017425	-2.145781	26.618103	639.518	01:22:14.270	2024-01-18
-0.346	0.021	-9.785	0.178234	0.494177	0.011985	0.019401	-2.141319	26.618342	639.532	01:22:14.284	2024-01-18
-0.331	-0.003	-9.766	0.027254	0.075501	0.002004	0.018636	-2.143940	26.618299	639.546	01:22:14.298	2024-01-18
-0.323	-0.023	-9.755	-0.126929	-0.327975	-0.003026	0.017871	-2.146560	26.618246	639.560	01:22:14.312	2024-01-18
-0.354	-0.009	-9.777	-0.268902	-0.560008	-0.001836	0.015687	-2.151216	26.618173	639.574	01:22:14.326	2024-01-18
-0.378	0.030	-9.804	-0.290652	-0.404450	-0.014298	0.011612	-2.158587	26.618060	639.588	01:22:14.340	2024-01-18
-0.398	0.036	-9.821	-0.101053	-0.075282	0.014801	0.011484	-2.158266	26.618582	639.602	01:22:14.354	2024-01-18
-0.392	0.036	-9.820	0.191969	0.447090	0.030530	0.013527	-2.153508	26.619105	639.616	01:22:14.368	2024-01-18
-0.351	0.017	-9.798	0.276286	0.634603	0.048416	0.016905	-2.146013	26.619612	639.630	01:22:14.382	2024-01-18
-0.321	-0.004	-9.770	0.139210	0.377182	0.048173	0.018515	-2.142080	26.619971	639.644	01:22:14.396	2024-01-18
-0.312	-0.008	-9.763	-0.060774	-0.152528	-0.025113	0.016892	-2.145137	26.620107	639.658	01:22:14.410	2024-01-18
-0.335	0.009	-9.760	-0.254813	-0.424408	0.002013	0.014816	-2.149301	26.620159	639.672	01:22:14.424	2024-01-18
-0.333	0.006	-9.760	-0.231263	-0.403242	0.000270	0.014840	-2.149246	26.620208	639.686	01:22:14.438	2024-01-18
-0.331	0.003	-9.759	-0.207714	-0.382077	-0.001473	0.014863	-2.149192	26.620259	639.700	01:22:14.452	2024-01-18
-0.329	0.001	-9.759	-0.184164	-0.360911	-0.003216	0.014887	-2.149137	26.620314	639.714	01:22:14.466	2024-01-18
-0.327	-0.002	-9.758	-0.160615	-0.339746	-0.004959	0.014910	-2.149082	26.620357	639.728	01:22:14.480	2024-01-18
-0.325	-0.005	-9.758	-0.137066	-0.318581	-0.006701	0.014934	-2.149028	26.620411	639.742	01:22:14.494	2024-01-18
-0.323	-0.008	-9.757	-0.113516	-0.297415	-0.008444	0.014957	-2.148973	26.620459	639.756	01:22:14.508	2024-01-18
-0.343	-0.000	-9.774	-0.287617	-0.521753	-0.006026	0.014410	-2.150076	26.620565	639.770	01:22:14.522	2024-01-18
-0.372	0.028	-9.799	-0.307892	-0.546232	0.029615	0.010439	-2.158131	26.621012	639.784	01:22:14.536	2024-01-18
-0.389	0.032	-9.801	-0.121076	-0.301510	0.019883	0.009243	-2.161586	26.621125	639.798	01:22:14.550	2024-01-18
-0.400	0.036	-9.809	0.074330	0.118684	0.003092	0.009967	-2.161337	26.621284	639.812	01:22:14.564	2024-01-18
-0.384	0.022	-9.804	0.187365	0.406355	0.036882	0.012712	-2.156423	26.621868	639.826	01:22:14.578	2024-01-18
-0.352	0.004	-9.793	0.192484	0.498548	0.019394	0.014846	-2.150575	26.622064	639.840	01:22:14.592	2024-01-18
-0.343	0.003	-9.777	0.128504	0.345893	-0.012017	0.016132	-2.146914	26.622109	639.854	01:22:14.606	2024-01-18
-0.340	0.006	-9.769	-0.011243	0.059068	-0.020915	0.016424	-2.146375	26.622044	639.868	01:22:14.620	2024-01-18
-0.355	-0.001	-9.775	-0.099191	-0.180774	0.000598	0.014671	-2.149632	26.622182	639.882	01:22:14.634	2024-01-18
-0.360	0.012	-9.784	-0.126203	-0.189707	0.019181	0.013416	-2.152143	26.622177	639.896	01:22:14.648	2024-01-18
-0.362	0.022	-9.781	-0.075080	-0.127408	-0.004181	0.012535	-2.154096	26.622080	639.910	01:22:14.662	2024-01-18
-0.366	0.026	-9.790	-0.033434	-0.045367	-0.003213	0.011654	-2.156049	26.621986	639.924	01:22:14.676	2024-01-18
-0.369	0.011	-9.793	0.037220	0.073419	-0.013206	0.011735	-2.155210	26.622162	639.938	01:22:14.690	2024-01-18
-0.361	0.013	-9.794	0.041097	0.227714	0.009210	0.012425	-2.153406	26.622225	639.952	01:22:14.704	2024-01-18
-0.356	0.012	-9.788	0.098704	0.149013	-0.003981	0.013674	-2.151977	26.621777	639.966	01:22:14.718	2024-01-18
-0.348	0.003	-9.786	0.032051	0.044898	0.020173	0.013808	-2.152326	26.622064	639.980	01:22:14.732	2024-01-18
-0.350	-0.003	-9.780	-0.070120	-0.050319	0.013113	0.013147	-2.153480	26.622361	639.994	01:22:14.746	2024-01-18
-0.351	-0.007	-9.787	-0.082619	-0.077094	0.009863	0.011673	-2.155313	26.622503	640.008	01:22:14.760	2024-01-18
-0.372	0.008	-9.797	-0.080065	-0.089890	-0.008437	0.010556	-2.156836	26.622711	640.022	01:22:14.774	2024-01-18
-0.376	0.014	-9.794	-0.103896	-0.054460	-0.014891	0.010133	-2.157296	26.622798	640.036	01:22:14.788	2024-01-18
-0.373	0.013	-9.793	-0.093615	-0.039183	-0.005129	0.010230	-2.156957	26.622802	640.050	01:22:14.802	2024-01-18
-0.371	0.013	-9.792	-0.083334	-0.023906	0.004633	0.010328	-2.156619	26.622790	640.064	01:22:14.816	2024-01-18
-0.368	0.012	-9.792	-0.073053	-0.008629	0.014396	0.010425	-2.156280	26.622785	640.078	01:22:14.830	2024-01-18
-0.366	0.012	-9.791	-0.062772	0.006648	0.024158	0.010523	-2.155941	26.622786	640.092	01:22:14.844	2024-01-18
-0.363	0.011	-9.791	-0.052492	0.021925	0.033920	0.010620	-2.155603	26.622776	640.106	01:22:14.858	2024-01-18
-0.360	0.011	-9.788	-0.034614	0.026521	0.037471	0.010718	-2.155264	26.622771	640.120	01:22:14.872	2024-01-18
-0.348	0.012	-9.778	-0.043842	-0.027242	-0.008181	0.010177	-2.155844	26.622619	640.134	01:22:14.886	2024-01-18
-0.353	0.010	-9.781	-0.089209	-0.106422	-0.022083	0.008786	-2.157649	26.622269	640.148	01:22:14.900	2024-01-18
-0.358	0.016	-9.788	-0.055524	-0.137958	0.008024	0.007999	-2.160394	26.622238	640.162	01:22:14.914	2024-01-18
-0.363	0.015	-9.794	-0.075320	-0.131593	-0.000177	0.007229	-2.162775	26.622491	640.176	01:22:14.928	2024-01-18
-0.375	0.018	-9.797	-0.062286	-0.069675	0.007971	0.006546	-2.164545	26.622957	640.190	01:22:14.942	2024-01-18
-0.367	0.022	-9.800	-0.016955	0.029502	0.025861	0.006309	-2.164297	26.623401	640.204	01:22:14.956	2024-01-18
-0.370	0.025	-9.792	0.080297	0.134643	0.037299	0.007248	-2.163383	26.623510	640.218	01:22:14.970	2024-01-18
-0.380	0.016	-9.787	0.083169	0.157084	-0.020671	0.008462	-2.162057	26.623451	640.232	01:22:14.984	2024-01-18
-0.363	0.004	-9.785	0.057816	0.141476	0.009346	0.009184	-2.160365	26.623304	640.246	01:22:14.998	2024-01-18
-0.355	0.006	-9.785	0.017600	0.069398	-0.005057	0.008620	-2.161071	26.623150	640.260	01:22:15.012	2024-01-18
-0.352	0.011	-9.785	-0.033545	-0.015544	-0.033712	0.007842	-2.162179	26.623005	640.274	01:22:15.026	2024-01-18
-0.357	0.011	-9.790	-0.067814	-0.132965	-0.047310	0.007064	-2.163285	26.622855	640.288	01:22:15.040	2024-01-18
-0.364	0.011	-9.786	-0.068481	-0.109666	-0.027389	0.006073	-2.165422	26.622515	640.302	01:22:15.054	2024-01-18
-0.363	0.018	-9.796	-0.073147	-0.028449	-0.012174	0.005289	-2.166292	26.622383	640.316	01:22:15.068	2024-01-18
-0.375	0.016	-9.791	-0.012716	0.061640	-0.004124	0.004880	-2.166046	26.622363	640.330	01:22:15.082	2024-01-18
-0.358	0.026	-9.786	0.059950	0.144885	-0.018643	0.005790	-2.164803	26.621989	640.344	01:22:15.096	2024-01-18
-0.342	0.016	-9.794	0.044088	0.132425	-0.048558	0.006560	-2.163620	26.621858	640.358	01:22:15.110	2024-01-18
-0.357	0.002	-9.780	0.042976	0.100718	0.001020	0.007069	-2.162975	26.621796	640.372	01:22:15.124	2024-01-18
-0.367	0.004	-9.786	-0.019346	0.020559	-0.002395	0.007068	-2.163616	26.621665	640.386	01:22:15.138	2024-01-18
-0.366	0.007	-9.786	-0.009831	0.042291	0.000394	0.007162	-2.163070	26.621620	640.400	01:22:15.152	2024-01-18
-0.365	0.010	-9.787	0.007503	0.071967	0.001841	0.007271	-2.162326	26.621598	640.414	01:22:15.166	2024-01-18
-0.365	0.012	-9.787	0.024838	0.101642	0.003288	0.007381	-2.161582	26.621569	640.428	01:22:15.180	2024-01-18
-0.364	0.015	-9.787	0.042172	0.131318	0.004735	0.007490	-2.160839	26.621540	640.442	01:22:15.194	2024-01-18
-0.364	0.018	-9.787	0.059506	0.160994	0.006181	0.007599	-2.160094	26.621514	640.456	01:22:15.208	2024-01-18
-0.365	0.019	-9.788	0.074974	0.200075	0.003637	0.007905	-2.159024	26.621499	640.470	01:22:15.222	2024-01-18
-0.374	0.012	-9.793	0.085909	0.264351	0.001810	0.009391	-2.155991	26.621484	640.484	01:22:15.236	2024-01-18
-0.361	0.008	-9.798	0.112904	0.243647	-0.013365	0.010409	-2.153419	26.621603	640.498	01:22:15.250	2024-01-18
-0.352	0.005	-9.784	0.026771	0.134627	0.007912	0.010807	-2.152170	26.621658	640.512	01:22:15.264	2024-01-18
-0.342	-0.001	-9.774	-0.048314	-0.068126	-0.009030	0.010122	-2.153774	26.621379	640.526	01:22:15.278	2024-01-18
-0.359	0.005	-9.786	-0.137903	-0.218443	-0.004593	0.008057	-2.157442	26.621294	640.540	01:22:15.292	2024-01-18
-0.383	0.013	-9.800	-0.124303	-0.133814	-0.040140	0.006792	-2.159514	26.621192	640.554	01:22:15.306	2024-01-18
-0.390	0.032	-9.811	0.014670	0.111025	0.002405	0.006901	-2.158997	26.621021	640.568	01:22:15.320	2024-01-18
-0.367	0.026	-9.802	0.149930	0.318407	-0.014669	0.009024	-2.154900	26.620661	640.582	01:22:15.334	2024-01-18
-0.352	0.004	-9.784	0.144060	0.325995	0.015969	0.009766	-2.153553	26.620521	640.596	01:22:15.348	2024-01-18
-0.338	-0.007	-9.772	0.028834	0.098641	-0.003535	0.009471	-2.154267	26.620555	640.610	01:22:15.362	2024-01-18
-0.352	0.009	-9.779	-0.088014	-0.158282	-0.037985	0.009176	-2.154982	26.620579	640.624	01:22:15.376	2024-01-18
-0.384	0.011	-9.798	-0.114431	-0.169545	-0.023746	0.008640	-2.156175	26.620322	640.638	01:22:15.390	2024-01-18
-0.373	0.016	-9.805	-0.012700	0.036482	-0.012496	0.008444	-2.156580	26.620278	640.652	01:22:15.404	2024-01-18
-0.354	0.011	-9.803	0.079942	0.193156	0.039214	0.009342	-2.154535	26.621046	640.666	01:22:15.418	2024-01-18
-0.349	0.007	-9.785	0.100318	0.219865	0.052483	0.010003	-2.153193	26.621480	640.680	01:22:15.432	2024-01-18
-0.346	0.009	-9.772	0.003797	0.026110	0.001793	0.010185	-2.153386	26.621574	640.694	01:22:15.446	2024-01-18
-0.367	0.015	-9.782	-0.072066	-0.093885	-0.046079	0.009781	-2.155467	26.621294	640.708	01:22:15.460	2024-01-18
-0.375	0.014	-9.797	-0.051072	-0.025160	0.006523	0.009205	-2.155812	26.621132	640.722	01:22:15.474	2024-01-18
-0.376	0.022	-9.800	0.001655	0.014184	-0.012330	0.009069	-2.155641	26.621069	640.736	01:22:15.488	2024-01-18
-0.376	0.024	-9.799	0.004257	0.029116	0.000099	0.009260	-2.155086	26.621094	640.750	01:22:15.502	2024-01-18
-0.377	0.025	-9.798	0.006858	0.044049	0.012527	0.009453	-2.154530	26.621115	640.764	01:22:15.516	2024-01-18
-0.377	0.027	-9.796	0.009459	0.058981	0.024956	0.009645	-2.153974	26.621134	640.778	01:22:15.530	2024-01-18
-0.377	0.029	-9.795	0.012060	0.073913	0.037385	0.009837	-2.153418	26.621161	640.792	01:22:15.544	2024-01-18
-0.377	0.030	-9.794	0.014661	0.088845	0.049814	0.010029	-2.152862	26.621187	640.806	01:22:15.558	2024-01-18
-0.377	0.032	-9.793	0.017262	0.103777	0.062242	0.010221	-2.152306	26.621202	640.820	01:22:15.572	2024-01-18
-0.375	0.024	-9.797	0.079045	0.165782	0.035172	0.011147	-2.150633	26.621291	640.834	01:22:15.586	2024-01-18
-0.366	0.001	-9.797	0.127601	0.295334	0.008967	0.013051	-2.147471	26.621451	640.848	01:22:15.600	2024-01-18
-0.352	-0.001	-9.781	0.075997	0.218879	0.013632	0.013871	-2.145593	26.621478	640.862	01:22:15.614	2024-01-18
-0.339	0.008	-9.781	0.013391	0.119483	0.013105	0.013915	-2.144990	26.621552	640.876	01:22:15.628	2024-01-18
-0.349	0.006	-9.783	-0.040971	-0.027886	-0.017653	0.013371	-2.145533	26.621610	640.890	01:22:15.642	2024-01-18
-0.358	0.002	-9.789	-0.058809	-0.070720	-0.041310	0.012792	-2.147222	26.621236	640.904	01:22:15.656	2024-01-18
-0.371	0.011	-9.798	-0.023370	-0.019103	-0.010910	0.012443	-2.148358	26.621050	640.918	01:22:15.670	2024-01-18
-0.359	0.017	-9.799	-0.013639	0.010707	-0.012076	0.012272	-2.148919	26.620879	640.932	01:22:15.684	2024-01-18
-0.365	0.023	-9.797	0.018581	0.043147	0.005608	0.012320	-2.148597	26.620573	640.946	01:22:15.698	2024-01-18
-0.360	0.003	-9.787	0.056623	0.109302	-0.018337	0.012570	-2.147525	26.620389	640.960	01:22:15.712	2024-01-18
-0.362	0.007	-9.789	0.007273	0.132360	-0.021074	0.012855	-2.146327	26.620234	640.974	01:22:15.726	2024-01-18
-0.352	0.013	-9.792	0.002949	0.115538	-0.006239	0.013139	-2.145130	26.620070	640.988	01:22:15.740	2024-01-18
-0.359	0.014	-9.794	0.008343	0.105269	-0.008800	0.013589	-2.144092	26.619856	641.002	01:22:15.754	2024-01-18
-0.356	0.010	-9.792	0.004415	0.130363	0.017243	0.014151	-2.143037	26.620070	641.016	01:22:15.768	2024-01-18
-0.356	0.012	-9.793	0.066941	0.142026	-0.012421	0.014755	-2.142008	26.620529	641.030	01:22:15.782	2024-01-18
-0.356	0.007	-9.787	0.037896	0.120093	0.001455	0.015104	-2.141205	26.620551	641.044	01:22:15.796	2024-01-18
-0.355	-0.008	-9.788	0.032139	-0.013344	-0.009219	0.015044	-2.141618	26.620799	641.058	01:22:15.810	2024-01-18
-0.351	0.012	-9.788	-0.046313	-0.014046	0.029172	0.014683	-2.142637	26.620992	641.072	01:22:15.824	2024-01-18
-0.352	0.023	-9.792	-0.053341	-0.069627	0.000627	0.013979	-2.143955	26.620835	641.086	01:22:15.838	2024-01-18
-0.352	0.020	-9.794	-0.051266	-0.070864	0.001703	0.013930	-2.143382	26.620867	641.100	01:22:15.852	2024-01-18
-0.353	0.016	-9.793	-0.051194	-0.060583	0.001953	0.013990	-2.142494	26.620925	641.114	01:22:15.866	2024-01-18
-0.353	0.013	-9.792	-0.051122	-0.050302	0.002203	0.014050	-2.141605	26.620983	641.128	01:22:15.880	2024-01-18
-0.354	0.009	-9.792	-0.051050	-0.040021	0.002453	0.014110	-2.140717	26.621048	641.142	01:22:15.894	2024-01-18
-0.354	0.006	-9.791	-0.050978	-0.029740	0.002703	0.014170	-2.139829	26.621103	641.156	01:22:15.908	2024-01-18
-0.355	0.002	-9.790	-0.050906	-0.019459	0.002953	0.014230	-2.138941	26.621168	641.170	01:22:15.922	2024-01-18
-0.357	-0.002	-9.792	-0.033197	-0.013205	-0.009849	0.014290	-2.138052	26.621229	641.184	01:22:15.936	2024-01-18
-0.368	0.012	-9.790	-0.004444	0.034312	-0.026424	0.014571	-2.136675	26.621164	641.198	01:22:15.950	2024-01-18
-0.368	0.011	-9.798	0.048024	0.218706	-0.008697	0.015204	-2.134821	26.621195	641.212	01:22:15.964	2024-01-18
-0.357	0.013	-9.790	0.072955	0.246949	0.060354	0.016495	-2.132259	26.621593	641.226	01:22:15.978	2024-01-18
-0.354	0.013	-9.782	0.097486	0.200851	0.015684	0.017316	-2.130569	26.621661	641.240	01:22:15.992	2024-01-18
-0.346	0.011	-9.791	0.043911	0.077646	-0.013964	0.017704	-2.130251	26.621793	641.254	01:22:16.006	2024-01-18
-0.345	0.007	-9.781	-0.042668	-0.079637	0.035088	0.017618	-2.131570	26.622071	641.268	01:22:16.020	2024-01-18
-0.355	0.008	-9.790	-0.071460	-0.143536	0.010303	0.016403	-2.134207	26.622015	641.282	01:22:16.034	2024-01-18
-0.368	0.010	-9.796	-0.108314	-0.117829	-0.007128	0.015248	-2.136512	26.622204	641.296	01:22:16.048	2024-01-18
-0.360	0.019	-9.796	-0.074472	-0.060473	0.019261	0.014364	-2.138090	26.622599	641.310	01:22:16.062	2024-01-18
-0.357	0.015	-9.796	-0.020503	0.064459	0.036820	0.014841	-2.136813	26.622971	641.324	01:22:16.076	2024-01-18
-0.354	0.011	-9.796	0.033467	0.189390	0.054379	0.015319	-2.135536	26.623335	641.338	01:22:16.090	2024-01-18
-0.365	0.009	-9.790	0.063290	0.151822	0.021054	0.015816	-2.134115	26.623666	641.352	01:22:16.104	2024-01-18
-0.354	0.010	-9.789	0.050319	0.205008	0.005082	0.016361	-2.132336	26.623891	641.366	01:22:16.118	2024-01-18
-0.343	0.010	-9.789	-0.001477	0.153502	-0.021975	0.016480	-2.130874	26.623840	641.380	01:22:16.132	2024-01-18
-0.338	0.017	-9.790	-0.001807	0.085942	-0.013966	0.016483	-2.130187	26.623775	641.394	01:22:16.146	2024-01-18
-0.343	0.015	-9.781	-0.026131	0.009246	-0.003937	0.016425	-2.130465	26.623736	641.408	01:22:16.160	2024-01-18
-0.364	0.004	-9.788	0.010148	-0.020702	-0.013955	0.016433	-2.131827	26.623415	641.422	01:22:16.174	2024-01-18
-0.369	0.009	-9.786	-0.001332	-0.045208	-0.042979	0.016212	-2.132879	26.623236	641.436	01:22:16.188	2024-01-18
-0.370	0.007	-9.792	-0.028728	-0.002640	0.033937	0.015886	-2.133474	26.623184	641.450	01:22:16.202	2024-01-18
-0.367	0.007	-9.791	-0.032095	-0.002120	0.028601	0.015969	-2.132739	26.623218	641.464	01:22:16.216	2024-01-18
-0.364	0.008	-9.790	-0.035461	-0.001601	0.023265	0.016053	-2.132003	26.623254	641.478	01:22:16.230	2024-01-18
-0.362	0.008	-9.789	-0.038827	-0.001081	0.017930	0.016136	-2.131267	26.623288	641.492	01:22:16.244	2024-01-18
-0.359	0.008	-9.787	-0.042194	-0.000562	0.012594	0.016219	-2.130531	26.623323	641.506	01:22:16.258	2024-01-18
-0.356	0.008	-9.786	-0.045560	-0.000042	0.007258	0.016302	-2.129795	26.623364	641.520	01:22:16.272	2024-01-18
-0.350	0.002	-9.782	-0.014040	-0.003643	0.009820	0.016169	-2.129912	26.623352	641.534	01:22:16.286	2024-01-18
-0.349	0.010	-9.790	-0.043045	-0.030814	-0.042807	0.015747	-2.131165	26.623268	641.548	01:22:16.300	2024-01-18
-0.358	0.004	-9.791	-0.041815	-0.070908	-0.003633	0.015444	-2.132707	26.623249	641.562	01:22:16.314	2024-01-18
-0.365	0.006	-9.790	-0.034910	-0.042957	0.039746	0.015205	-2.133792	26.623551	641.576	01:22:16.328	2024-01-18
-0.369	0.007	-9.793	0.003021	0.002658	0.005720	0.015049	-2.134371	26.624040	641.590	01:22:16.342	2024-01-18
-0.364	0.018	-9.794	0.020645	0.076010	0.017891	0.015095	-2.133965	26.624243	641.604	01:22:16.356	2024-01-18
-0.359	0.015	-9.795	0.046045	0.087499	0.018813	0.015759	-2.133036	26.624564	641.618	01:22:16.370	2024-01-18
-0.348	0.014	-9.782	0.036824	0.140576	0.025268	0.016489	-2.131888	26.624825	641.632	01:22:16.384	2024-01-18
-0.357	0.013	-9.786	0.065648	0.133673	0.009804	0.016763	-2.130717	26.624805	641.646	01:22:16.398	2024-01-18
-0.361	0.013	-9.786	0.024975	0.063948	0.003732	0.016116	-2.131795	26.624865	641.660	01:22:16.412	2024-01-18
-0.362	0.013	-9.786	-0.032670	-0.020441	0.000188	0.015316	-2.133249	26.624935	641.674	01:22:16.426	2024-01-18
-0.362	0.013	-9.785	-0.090315	-0.104830	-0.003355	0.014515	-2.134703	26.625006	641.688	01:22:16.440	2024-01-18
-0.364	0.013	-9.782	-0.093164	-0.162023	-0.006767	0.013714	-2.136156	26.625083	641.702	01:22:16.454	2024-01-18
-0.369	0.017	-9.792	-0.079703	-0.061690	0.010017	0.013142	-2.136570	26.624996	641.716	01:22:16.468	2024-01-18
-0.379	0.025	-9.802	0.001846	0.108177	-0.018384	0.013045	-2.135732	26.624807	641.730	01:22:16.482	2024-01-18
-0.372	0.025	-9.799	0.101788	0.306356	-0.000235	0.014770	-2.132073	26.624777	641.744	01:22:16.496	2024-01-18
-0.348	0.016	-9.798	0.178270	0.336003	-0.024958	0.016451	-2.128239	26.624858	641.758	01:22:16.510	2024-01-18
-0.338	-0.000	-9.778	0.090119	0.262858	0.028233	0.017686	-2.125563	26.625160	641.772	01:22:16.524	2024-01-18
-0.343	-0.008	-9.767	-0.021250	0.040932	0.026944	0.017848	-2.125960	26.625954	641.786	01:22:16.538	2024-01-18
-0.351	0.008	-9.780	-0.140916	-0.185921	0.001701	0.016219	-2.128955	26.625742	641.800	01:22:16.552	2024-01-18
-0.361	0.009	-9.790	-0.122675	-0.180226	-0.007266	0.015136	-2.130792	26.625614	641.814	01:22:16.566	2024-01-18
-0.359	0.010	-9.789	-0.096070	-0.141947	-0.008290	0.015181	-2.130506	26.625840	641.828	01:22:16.580	2024-01-18
-0.357	0.012	-9.789	-0.069466	-0.103669	-0.009313	0.015226	-2.130220	26.626048	641.842	01:22:16.594	2024-01-18
-0.355	0.013	-9.788	-0.042861	-0.065390	-0.010336	0.015271	-2.129935	26.626265	641.856	01:22:16.608	2024-01-18
-0.353	0.014	-9.788	-0.016257	-0.027112	-0.011359	0.015316	-2.129649	26.626482	641.870	01:22:16.622	2024-01-18
-0.351	0.015	-9.787	0.010348	0.011167	-0.012383	0.015361	-2.129363	26.626702	641.884	01:22:16.636	2024-01-18
-0.353	0.008	-9.786	0.014480	0.103928	-0.031367	0.015789	-2.128592	26.626625	641.898	01:22:16.650	2024-01-18
-0.356	0.010	-9.791	0.041969	0.134972	-0.004478	0.016323	-2.127598	26.626574	641.912	01:22:16.664	2024-01-18
-0.358	0.011	-9.783	0.040325	0.123766	0.019444	0.016737	-2.126529	26.626900	641.926	01:22:16.678	2024-01-18
-0.352	0.003	-9.788	0.044926	0.041939	-0.040156	0.016956	-2.126706	26.626770	641.940	01:22:16.692	2024-01-18
-0.359	0.008	-9.786	0.002655	0.024068	0.001167	0.017316	-2.126618	26.626350	641.954	01:22:16.706	2024-01-18
-0.374	0.013	-9.794	0.036459	0.125351	-0.055365	0.017910	-2.125901	26.625652	641.968	01:22:16.720	2024-01-18
-0.356	0.022	-9.798	0.057171	0.191360	-0.029770	0.018981	-2.123868	26.625449	641.982	01:22:16.734	2024-01-18
-0.349	0.012	-9.786	0.105988	0.181749	-0.034233	0.019843	-2.122575	26.625262	641.996	01:22:16.748	2024-01-18
-0.340	0.003	-9.781	0.054397	0.070000	-0.028273	0.020250	-2.122314	26.625138	642.010	01:22:16.762	2024-01-18
-0.344	0.007	-9.786	-0.007825	-0.009260	-0.029829	0.018878	-2.124913	26.625228	642.024	01:22:16.776	2024-01-18
-0.348	0.010	-9.791	-0.070047	-0.088520	-0.031385	0.017507	-2.127513	26.625327	642.038	01:22:16.790	2024-01-18
-0.356	0.015	-9.798	-0.063359	-0.121489	-0.008264	0.016622	-2.129532	26.625390	642.052	01:22:16.804	2024-01-18
-0.368	0.013	-9.802	0.008297	0.014329	-0.025668	0.016956	-2.130100	26.625385	642.066	01:22:16.818	2024-01-18
-0.361	0.018	-9.785	0.026880	0.116185	-0.012569	0.017485	-2.128977	26.625320	642.080	01:22:16.832	2024-01-18
-0.359	0.007	-9.786	0.041489	0.157559	-0.012448	0.017940	-2.127915	26.625112	642.094	01:22:16.846	2024-01-18
-0.356	0.009	-9.788	0.007549	0.106047	-0.016589	0.018254	-2.127309	26.624730	642.108	01:22:16.860	2024-01-18
-0.347	0.014	-9.795	0.028039	0.093942	0.003312	0.018519	-2.126376	26.624503	642.122	01:22:16.874	2024-01-18
-0.350	0.009	-9.790	0.001152	0.065705	-0.029176	0.018592	-2.126232	26.624308	642.136	01:22:16.888	2024-01-18
-0.344	0.004	-9.778	-0.006094	-0.006218	-0.023150	0.018512	-2.126642	26.624171	642.150	01:22:16.902	2024-01-18
-0.351	0.009	-9.786	-0.010042	-0.029828	-0.031298	0.018374	-2.126828	26.624298	642.164	01:22:16.916	2024-01-18
-0.351	0.007	-9.786	-0.011535	-0.008119	-0.023037	0.018236	-2.127015	26.624429	642.178	01:22:16.930	2024-01-18
-0.351	0.006	-9.786	-0.013029	0.013590	-0.014776	0.018099	-2.127203	26.624552	642.192	01:22:16.944	2024-01-18
-0.351	0.005	-9.786	-0.014522	0.035298	-0.006514	0.017961	-2.127390	26.624685	642.206	01:22:16.958	2024-01-18
-0.352	0.004	-9.787	-0.016015	0.057007	0.001747	0.017824	-2.127577	26.624815	642.220	01:22:16.972	2024-01-18
-0.352	0.003	-9.787	-0.017509	0.078715	0.010008	0.017686	-2.127764	26.624936	642.234	01:22:16.986	2024-01-18
-0.350	0.007	-9.774	-0.018633	0.010045	-0.020935	0.017548	-2.127951	26.625071	642.248	01:22:17.000	2024-01-18
-0.361	0.010	-9.791	-0.048833	-0.022931	0.023352	0.017086	-2.128584	26.625515	642.262	01:22:17.014	2024-01-18
-0.365	0.011	-9.793	0.070476	0.060503	0.046111	0.017428	-2.128011	26.626072	642.276	01:22:17.028	2024-01-18
-0.362	0.012	-9.787	0.029952	0.174090	0.014890	0.018385	-2.126530	26.626671	642.290	01:22:17.042	2024-01-18
-0.353	0.006	-9.791	0.082532	0.183621	0.018284	0.019422	-2.125035	26.626932	642.304	01:22:17.056	2024-01-18
-0.348	-0.004	-9.779	0.088451	0.093361	0.007754	0.019653	-2.124851	26.627230	642.318	01:22:17.070	2024-01-18
-0.347	0.001	-9.774	-0.055168	-0.039310	0.025066	0.019283	-2.125756	26.627542	642.332	01:22:17.084	2024-01-18
-0.350	0.008	-9.786	-0.098077	-0.096864	0.009666	0.018209	-2.128071	26.627884	642.346	01:22:17.098	2024-01-18
-0.352	0.016	-9.804	-0.080716	-0.137728	0.004626	0.016837	-2.130130	26.622747	642.360	01:22:17.112	2024-01-18
-0.357	0.015	-9.809	-0.026466	-0.034369	-0.007798	0.016271	-2.131134	26.619086	642.374	01:22:17.126	2024-01-18
-0.350	0.014	-9.797	0.003179	0.011238	-0.019913	0.016844	-2.130790	26.618612	642.388	01:22:17.140	2024-01-18
-0.344	0.013	-9.786	0.032824	0.056845	-0.032028	0.017417	-2.130444	26.618130	642.402	01:22:17.154	2024-01-18
-0.354	0.010	-9.792	0.012355	0.046769	0.014179	0.017628	-2.130173	26.618009	642.416	01:22:17.168	2024-01-18
-0.351	0.010	-9.780	-0.000301	0.055003	0.021622	0.017583	-2.129934	26.618183	642.430	01:22:17.182	2024-01-18
-0.355	0.013	-9.790	0.010552	0.062875	0.001280	0.017639	-2.129560	26.618470	642.444	01:22:17.196	2024-01-18
-0.347	0.007	-9.791	-0.015944	0.062923	0.018105	0.023871	-2.116708	26.616902	642.458	01:22:17.210	2024-01-18
-0.351	0.009	-9.791	-0.013451	-0.015907	0.011264	0.029902	-2.104472	26.615318	642.472	01:22:17.224	2024-01-18
-0.342	0.014	-9.786	-0.042425	-0.057478	0.019358	0.029252	-2.106257	26.615541	642.486	01:22:17.238	2024-01-18
-0.362	0.000	-9.785	-0.047159	-0.108678	-0.036175	0.028893	-2.107139	26.615143	642.500	01:22:17.252	2024-01-18
-0.364	0.020	-9.801	-0.050590	0.005117	-0.014785	0.028653	-2.107186	26.614479	642.514	01:22:17.266	2024-01-18
-0.363	0.023	-9.797	-0.067859	0.044699	0.008295	0.028507	-2.106320	26.613608	642.528	01:22:17.280	2024-01-18
-0.364	0.019	-9.795	-0.077277	0.018274	0.010553	0.028362	-2.105453	26.612744	642.542	01:22:17.294	2024-01-18
-0.366	0.015	-9.793	-0.086695	-0.008152	0.012811	0.028217	-2.104587	26.611872	642.556	01:22:17.308	2024-01-18
-0.367	0.011	-9.791	-0.096113	-0.034578	0.015069	0.028071	-2.103721	26.611006	642.570	01:22:17.322	2024-01-18
-0.369	0.007	-9.789	-0.105530	-0.061004	0.017327	0.027926	-2.102855	26.610134	642.584	01:22:17.336	2024-01-18
-0.370	0.003	-9.787	-0.114948	-0.087429	0.019585	0.027781	-2.101989	26.609261	642.598	01:22:17.350	2024-01-18
-0.368	0.016	-9.803	-0.030794	0.038214	0.032029	0.027981	-2.100693	26.608660	642.612	01:22:17.364	2024-01-18
-0.361	0.021	-9.788	0.070501	0.176763	0.026789	0.029047	-2.098324	26.608735	642.626	01:22:17.378	2024-01-18
-0.348	0.007	-9.797	0.082453	0.206284	-0.003053	0.029852	-2.096537	26.608902	642.640	01:22:17.392	2024-01-18
-0.339	0.003	-9.781	0.009783	0.111432	0.028647	0.029259	-2.099630	26.609408	642.654	01:22:17.406	2024-01-18
-0.344	0.004	-9.782	-0.049637	-0.032948	-0.025493	0.026860	-2.109103	26.610330	642.668	01:22:17.420	2024-01-18
-0.357	0.009	-9.787	-0.043423	-0.033502	0.000677	0.026288	-2.109934	26.610398	642.682	01:22:17.434	2024-01-18
-0.367	0.010	-9.801	-0.007616	0.048039	0.004321	0.026063	-2.110083	26.610390	642.696	01:22:17.448	2024-01-18
-0.350	0.013	-9.787	0.013417	0.089981	-0.006739	0.026146	-2.109408	26.610369	642.710	01:22:17.462	2024-01-18
-0.360	0.017	-9.793	0.042344	0.221774	0.003918	0.026528	-2.106869	26.610622	642.724	01:22:17.476	2024-01-18
-0.358	0.016	-9.795	0.037881	0.196844	-0.022198	0.025603	-2.108350	26.609425	642.738	01:22:17.490	2024-01-18
-0.351	0.011	-9.790	0.009710	0.144466	0.002686	0.024156	-2.111438	26.607646	642.752	01:22:17.504	2024-01-18
-0.346	0.008	-9.782	0.038609	0.101494	-0.026781	0.022709	-2.114525	26.605866	642.766	01:22:17.518	2024-01-18
-0.348	0.006	-9.781	-0.033029	-0.020060	-0.021875	0.021670	-2.116995	26.605586	642.780	01:22:17.532	2024-01-18
-0.351	0.011	-9.788	-0.076211	-0.141819	-0.008383	0.020676	-2.119712	26.605527	642.794	01:22:17.546	2024-01-18
-0.356	0.010	-9.785	-0.069720	-0.197997	0.003967	0.019652	-2.122898	26.605426	642.808	01:22:17.560	2024-01-18
-0.369	0.002	-9.795	-0.058641	-0.140600	-0.020506	0.018591	-2.125243	26.604946	642.822	01:22:17.574	2024-01-18
-0.373	0.018	-9.799	-0.056369	0.027772	-0.002047	0.018047	-2.125898	26.604990	642.836	01:22:17.588	2024-01-18
-0.364	0.014	-9.798	-0.007052	0.118621	0.024223	0.017356	-2.127761	26.605738	642.850	01:22:17.602	2024-01-18
-0.353	0.007	-9.790	0.053293	0.174368	0.000888	0.013446	-2.144482	26.608375	642.864	01:22:17.616	2024-01-18
-0.348	0.006	-9.783	0.066701	0.178633	-0.003917	0.012250	-2.150132	26.608949	642.878	01:22:17.630	2024-01-18
-0.347	0.004	-9.784	0.065028	0.185792	0.000332	0.012140	-2.151356	26.608689	642.892	01:22:17.644	2024-01-18
-0.346	0.001	-9.784	0.063355	0.192950	0.004581	0.012030	-2.152579	26.608429	642.906	01:22:17.658	2024-01-18
-0.345	-0.002	-9.785	0.061682	0.200109	0.008830	0.011919	-2.153802	26.608168	642.920	01:22:17.672	2024-01-18
-0.344	-0.004	-9.785	0.060009	0.207268	0.013079	0.011809	-2.155025	26.607909	642.934	01:22:17.686	2024-01-18
-0.342	-0.007	-9.786	0.058336	0.214426	0.017328	0.011698	-2.156248	26.607654	642.948	01:22:17.700	2024-01-18
-0.343	-0.005	-9.782	0.054650	0.180433	0.019261	0.011588	-2.157471	26.607391	642.962	01:22:17.714	2024-01-18
-0.341	0.001	-9.776	-0.000756	-0.003853	-0.032143	0.010913	-2.159573	26.607123	642.976	01:22:17.728	2024-01-18
-0.355	0.007	-9.785	-0.113127	-0.104889	0.013470	0.009765	-2.162194	26.606971	642.990	01:22:17.742	2024-01-18
-0.361	0.010	-9.796	-0.095416	-0.101009	0.022594	0.008330	-2.163969	26.607588	643.004	01:22:17.756	2024-01-18
-0.358	0.017	-9.808	0.008243	0.031672	0.022268	0.008074	-2.164173	26.607714	643.018	01:22:17.770	2024-01-18
-0.352	0.005	-9.794	0.032211	0.173765	-0.015534	0.008597	-2.163372	26.607634	643.032	01:22:17.784	2024-01-18
-0.354	0.007	-9.788	0.117137	0.161523	-0.005045	0.009890	-2.161633	26.607540	643.046	01:22:17.798	2024-01-18
-0.346	-0.004	-9.781	0.016479	0.093391	-0.005908	0.005053	-2.174041	26.606169	643.060	01:22:17.812	2024-01-18
-0.349	0.002	-9.782	-0.021512	-0.026639	-0.004486	0.001312	-2.183050	26.605472	643.074	01:22:17.826	2024-01-18
-0.348	0.013	-9.790	-0.077304	-0.041674	0.048979	0.000392	-2.184384	26.605936	643.088	01:22:17.840	2024-01-18
-0.355	0.013	-9.787	-0.048146	-0.041373	0.022023	-0.000053	-2.185973	26.606023	643.102	01:22:17.854	2024-01-18
-0.362	0.014	-9.784	-0.018988	-0.041072	-0.004932	-0.000497	-2.187561	26.606111	643.116	01:22:17.868	2024-01-18
-0.357	0.008	-9.786	-0.026702	-0.047095	0.017637	-0.000993	-2.189219	26.606170	643.130	01:22:17.882	2024-01-18
-0.353	0.015	-9.782	-0.052816	-0.053250	0.009164	-0.001802	-2.191291	26.606071	643.144	01:22:17.896	2024-01-18
-0.363	0.014	-9.793	-0.042882	0.041491	0.005378	-0.006365	-2.198431	26.607009	643.158	01:22:17.910	2024-01-18
-0.360	0.007	-9.797	0.007336	0.030442	0.026813	-0.010812	-2.205151	26.608076	643.172	01:22:17.924	2024-01-18
-0.355	0.003	-9.791	0.031289	0.065075	0.026397	-0.011210	-2.205755	26.608433	643.186	01:22:17.938	2024-01-18
-0.349	0.003	-9.786	-0.003051	0.024030	0.006667	-0.011721	-2.206936	26.608571	643.200	01:22:17.952	2024-01-18
-0.348	0.003	-9.785	-0.068016	-0.083692	0.000599	-0.012734	-2.208929	26.608587	643.214	01:22:17.966	2024-01-18
-0.355	-0.001	-9.794	-0.097963	-0.118986	0.010281	-0.014393	-2.211879	26.608496	643.228	01:22:17.980	2024-01-18
-0.353	-0.002	-9.791	-0.072482	-0.069068	0.005192	-0.013383	-2.209138	26.607179	643.242	01:22:17.994	2024-01-18
-0.351	-0.002	-9.789	-0.047000	-0.019149	0.000103	-0.012374	-2.206397	26.605858	643.256	01:22:18.008	2024-01-18
-0.350	-0.003	-9.787	-0.021519	0.030770	-0.004986	-0.011365	-2.203656	26.604536	643.270	01:22:18.022	2024-01-18
-0.348	-0.003	-9.784	0.003963	0.080688	-0.010075	-0.010355	-2.200916	26.603206	643.284	01:22:18.036	2024-01-18
-0.346	-0.003	-9.782	0.029444	0.130607	-0.015165	-0.009346	-2.198174	26.601896	643.298	01:22:18.050	2024-01-18
-0.344	-0.004	-9.782	0.032425	0.090270	-0.004535	-0.008879	-2.196833	26.601092	643.312	01:22:18.064	2024-01-18
-0.336	-0.002	-9.786	-0.065079	-0.090265	-0.002854	-0.009764	-2.198992	26.601579	643.326	01:22:18.078	2024-01-18
-0.344	-0.003	-9.789	-0.092540	-0.198055	-0.017474	-0.011162	-2.202626	26.601099	643.340	01:22:18.092	2024-01-18
-0.357	0.007	-9.788	-0.104815	-0.230339	-0.018853	-0.010916	-2.206049	26.601589	643.354	01:22:18.106	2024-01-18
-0.363	0.012	-9.784	-0.102464	-0.109242	-0.032309	-0.008365	-2.208864	26.603590	643.368	01:22:18.120	2024-01-18
-0.375	0.014	-9.795	-0.058120	0.002688	0.021115	-0.008585	-2.208995	26.603718	643.382	01:22:18.134	2024-01-18
-0.362	0.022	-9.794	0.047729	0.132014	-0.007220	-0.007962	-2.207708	26.603809	643.396	01:22:18.148	2024-01-18
-0.363	0.017	-9.798	0.105675	0.226717	0.028020	-0.006712	-2.205511	26.603887	643.410	01:22:18.162	2024-01-18
-0.353	0.005	-9.782	0.090232	0.178725	0.008228	-0.005495	-2.204229	26.603910	643.424	01:22:18.176	2024-01-18
-0.351	-0.001	-9.773	0.018517	0.071898	-0.009847	-0.005846	-2.204886	26.604014	643.438	01:22:18.190	2024-01-18
-0.357	0.006	-9.784	-0.035012	0.026720	-0.006815	-0.006825	-2.206319	26.604135	643.452	01:22:18.204	2024-01-18
-0.363	0.013	-9.796	-0.088540	-0.018457	-0.003782	-0.007804	-2.207752	26.604266	643.466	01:22:18.218	2024-01-18
-0.369	0.020	-9.806	-0.109623	-0.033496	-0.002037	-0.008783	-2.209184	26.604400	643.480	01:22:18.232	2024-01-18
-0.366	0.020	-9.804	0.024424	0.144086	0.017589	-0.008754	-2.208920	26.604738	643.494	01:22:18.246	2024-01-18
-0.364	0.022	-9.799	0.109495	0.253735	0.027569	-0.007382	-2.206394	26.605354	643.508	01:22:18.260	2024-01-18
-0.354	0.008	-9.785	0.090533	0.265177	0.019144	-0.006427	-2.203810	26.605451	643.522	01:22:18.274	2024-01-18
-0.334	0.003	-9.782	0.035096	0.104436	0.016404	-0.006082	-2.203539	26.605660	643.536	01:22:18.288	2024-01-18
-0.337	0.007	-9.773	-0.041856	-0.113134	-0.009258	-0.005224	-2.203298	26.605284	643.550	01:22:18.302	2024-01-18
-0.344	0.002	-9.781	-0.174257	-0.301725	-0.041175	0.001472	-2.192847	26.600836	643.564	01:22:18.316	2024-01-18
-0.365	0.001	-9.791	-0.188956	-0.349195	0.041760	0.002078	-2.193111	26.599572	643.578	01:22:18.330	2024-01-18
-0.369	0.010	-9.790	-0.141966	-0.260030	-0.026825	0.001020	-2.195897	26.599548	643.592	01:22:18.344	2024-01-18
-0.362	0.006	-9.786	-0.104601	-0.203494	-0.024875	0.001892	-2.194275	26.599437	643.606	01:22:18.358	2024-01-18
-0.356	0.003	-9.782	-0.067237	-0.146959	-0.022924	0.002764	-2.192652	26.599318	643.620	01:22:18.372	2024-01-18
-0.350	-0.001	-9.778	-0.029872	-0.090423	-0.020974	0.003636	-2.191030	26.599214	643.634	01:22:18.386	2024-01-18
-0.343	-0.004	-9.774	0.007493	-0.033887	-0.019024	0.004507	-2.189407	26.599098	643.648	01:22:18.400	2024-01-18
-0.337	-0.003	-9.772	-0.034445	-0.073645	-0.015110	0.005379	-2.187784	26.598995	643.662	01:22:18.414	2024-01-18
-0.351	0.008	-9.783	-0.144216	-0.259291	-0.001284	0.004315	-2.189569	26.599002	643.676	01:22:18.428	2024-01-18
-0.368	0.019	-9.800	-0.177265	-0.269787	0.027821	0.002110	-2.193420	26.599159	643.690	01:22:18.442	2024-01-18
-0.378	0.015	-9.809	-0.052098	-0.053019	0.021634	0.001774	-2.194334	26.599678	643.704	01:22:18.456	2024-01-18
-0.367	0.010	-9.804	0.067399	0.108985	-0.012400	0.002244	-2.193477	26.599859	643.718	01:22:18.470	2024-01-18
-0.353	0.003	-9.785	0.043335	0.161415	0.021998	0.002846	-2.192178	26.599912	643.732	01:22:18.484	2024-01-18
-0.355	-0.001	-9.786	0.024206	0.083924	0.002459	0.002976	-2.191547	26.600033	643.746	01:22:18.498	2024-01-18
-0.357	0.001	-9.779	-0.026862	0.041659	0.020914	-0.002218	-2.200618	26.602040	643.760	01:22:18.512	2024-01-18
-0.363	0.008	-9.793	-0.032842	-0.003797	-0.023015	-0.005977	-2.206976	26.603097	643.774	01:22:18.526	2024-01-18
-0.361	0.014	-9.797	-0.019649	0.039691	-0.031776	-0.006641	-2.207560	26.602465	643.788	01:22:18.540	2024-01-18
-0.361	0.010	-9.793	-0.005042	0.027065	-0.025613	-0.006275	-2.207133	26.602542	643.802	01:22:18.554	2024-01-18
-0.360	0.006	-9.789	0.009565	0.014440	-0.019451	-0.005909	-2.206706	26.602620	643.816	01:22:18.568	2024-01-18
-0.360	0.005	-9.785	0.006073	-0.010569	-0.007401	-0.005746	-2.206577	26.602677	643.830	01:22:18.582	2024-01-18
-0.351	0.018	-9.786	-0.067528	-0.083416	0.015721	-0.006802	-2.208234	26.602629	643.844	01:22:18.596	2024-01-18
-0.361	0.007	-9.797	-0.061937	-0.075684	-0.027474	-0.009734	-2.214906	26.602142	643.858	01:22:18.610	2024-01-18
-0.365	0.010	-9.789	-0.042806	-0.000714	0.009162	-0.012293	-2.221082	26.601628	643.872	01:22:18.624	2024-01-18
-0.370	0.001	-9.792	0.009930	0.061607	-0.015521	-0.012047	-2.220997	26.601481	643.886	01:22:18.638	2024-01-18
-0.362	0.009	-9.790	0.037855	0.088224	-0.009690	-0.012000	-2.220642	26.601420	643.900	01:22:18.652	2024-01-18
-0.357	0.011	-9.783	-0.000464	0.095725	-0.007641	-0.012172	-2.220485	26.601488	643.914	01:22:18.666	2024-01-18
-0.347	0.016	-9.785	-0.041225	0.032326	-0.004413	-0.012590	-2.220652	26.601698	643.928	01:22:18.680	2024-01-18
-0.355	0.017	-9.788	-0.041596	-0.008642	0.025246	-0.011371	-2.217621	26.601437	643.942	01:22:18.694	2024-01-18
-0.356	0.015	-9.788	-0.006405	0.065138	0.019456	-0.010152	-2.214590	26.601179	643.956	01:22:18.708	2024-01-18
-0.357	0.014	-9.789	0.028786	0.138918	0.013667	-0.008932	-2.211559	26.600916	643.970	01:22:18.722	2024-01-18
-0.358	0.012	-9.790	0.063978	0.212697	0.007877	-0.007713	-2.208529	26.600663	643.984	01:22:18.736	2024-01-18
-0.358	0.011	-9.790	0.099169	0.286477	0.002087	-0.006494	-2.205498	26.600394	643.998	01:22:18.750	2024-01-18
-0.359	0.009	-9.791	0.134360	0.360257	-0.003702	-0.005275	-2.202467	26.600143	644.012	01:22:18.764	2024-01-18
-0.359	0.003	-9.779	0.145924	0.299206	-0.055100	-0.004056	-2.199436	26.599876	644.026	01:22:18.778	2024-01-18
-0.343	0.005	-9.778	0.020925	0.062654	0.010078	-0.003966	-2.199828	26.600276	644.040	01:22:18.792	2024-01-18
-0.355	0.003	-9.775	-0.100894	-0.126369	0.006932	-0.004723	-2.201636	26.600407	644.054	01:22:18.806	2024-01-18
-0.370	0.009	-9.797	-0.117593	-0.187410	-0.020010	-0.006359	-2.204572	26.600057	644.068	01:22:18.820	2024-01-18
-0.380	0.017	-9.800	-0.070232	-0.007143	-0.022154	-0.007255	-2.204637	26.599748	644.082	01:22:18.834	2024-01-18
-0.369	0.017	-9.802	0.056968	0.170137	-0.005633	-0.006725	-2.203027	26.599741	644.096	01:22:18.848	2024-01-18
-0.358	0.010	-9.793	0.117439	0.281300	0.021752	-0.005249	-2.200230	26.599979	644.110	01:22:18.862	2024-01-18
-0.349	0.001	-9.787	0.055203	0.210222	0.030784	-0.004514	-2.197848	26.600214	644.124	01:22:18.876	2024-01-18
-0.351	0.012	-9.774	-0.003580	0.047682	-0.007704	-0.004599	-2.197716	26.600418	644.138	01:22:18.890	2024-01-18
-0.347	0.003	-9.788	-0.022324	0.005406	0.021898	-0.004035	-2.196709	26.600747	644.152	01:22:18.904	2024-01-18
-0.354	0.005	-9.792	0.018094	0.088381	0.020441	-0.001029	-2.191262	26.601410	644.166	01:22:18.918	2024-01-18
-0.362	0.006	-9.797	0.058512	0.171356	0.018984	0.001978	-2.185816	26.602065	644.180	01:22:18.932	2024-01-18
-0.363	0.009	-9.792	0.098027	0.231689	-0.008848	0.004347	-2.181605	26.602443	644.194	01:22:18.946	2024-01-18
-0.356	0.012	-9.774	0.102356	0.201664	-0.013966	0.005865	-2.179043	26.602424	644.208	01:22:18.960	2024-01-18
-0.350	0.007	-9.784	0.023572	0.129407	-0.000247	0.006058	-2.178164	26.602625	644.222	01:22:18.974	2024-01-18
-0.358	0.002	-9.787	0.016134	0.080414	0.019101	0.006232	-2.177517	26.602670	644.236	01:22:18.988	2024-01-18
-0.366	0.014	-9.795	-0.007491	0.051995	-0.002257	0.006104	-2.177719	26.602357	644.250	01:22:19.002	2024-01-18
-0.357	0.011	-9.793	0.047358	0.090707	-0.002509	0.004247	-2.181984	26.600440	644.264	01:22:19.016	2024-01-18
-0.354	0.004	-9.781	0.046214	0.095176	0.014237	0.003968	-2.183285	26.599854	644.278	01:22:19.030	2024-01-18
-0.348	0.016	-9.775	0.007340	0.013373	0.024463	0.003898	-2.183851	26.599784	644.292	01:22:19.044	2024-01-18
-0.346	0.015	-9.777	0.006917	0.023294	0.025905	0.002776	-2.185543	26.599658	644.306	01:22:19.058	2024-01-18
-0.345	0.013	-9.780	0.006494	0.033215	0.027347	0.001654	-2.187236	26.599523	644.320	01:22:19.072	2024-01-18
-0.344	0.012	-9.782	0.006071	0.043135	0.028789	0.000532	-2.188927	26.599398	644.334	01:22:19.086	2024-01-18
-0.343	0.011	-9.784	0.005648	0.053056	0.030231	-0.000590	-2.190619	26.599268	644.348	01:22:19.100	2024-01-18
-0.341	0.009	-9.787	0.005225	0.062977	0.031673	-0.001712	-2.192311	26.599144	644.362	01:22:19.114	2024-01-18
-0.352	0.010	-9.785	-0.042937	0.031241	-0.013553	-0.002505	-2.193252	26.598859	644.376	01:22:19.128	2024-01-18
-0.356	0.004	-9.787	-0.020738	0.048201	-0.011725	-0.002933	-2.193470	26.598522	644.390	01:22:19.142	2024-01-18
-0.360	0.015	-9.800	0.003033	0.092048	-0.017699	-0.002643	-2.192731	26.598517	644.404	01:22:19.156	2024-01-18
-0.364	0.012	-9.791	0.061694	0.240746	0.001068	-0.002323	-2.191497	26.598770	644.418	01:22:19.170	2024-01-18
-0.347	0.009	-9.789	0.018533	0.086635	0.006141	-0.002256	-2.190706	26.598913	644.432	01:22:19.184	2024-01-18
-0.339	0.003	-9.782	-0.018560	-0.007635	-0.001040	-0.002855	-2.191515	26.598536	644.446	01:22:19.198	2024-01-18
-0.354	0.005	-9.781	-0.052291	-0.125945	-0.010350	-0.004293	-2.192737	26.599665	644.460	01:22:19.212	2024-01-18
-0.375	0.015	-9.791	-0.067873	-0.070467	-0.001185	-0.005202	-2.193083	26.600588	644.474	01:22:19.226	2024-01-18
-0.378	0.029	-9.803	0.007334	0.128501	-0.020662	-0.005220	-2.192169	26.600921	644.488	01:22:19.240	2024-01-18
-0.364	0.018	-9.791	-0.011155	0.065261	-0.011259	-0.004657	-2.191535	26.601140	644.502	01:22:19.254	2024-01-18
-0.350	0.006	-9.780	-0.029643	0.002022	-0.001857	-0.004094	-2.190901	26.601364	644.516	01:22:19.268	2024-01-18
-0.336	-0.006	-9.768	-0.048132	-0.061218	0.007545	-0.003530	-2.190267	26.601580	644.530	01:22:19.282	2024-01-18
-0.339	-0.004	-9.767	-0.135257	-0.239711	0.014216	-0.002967	-2.189633	26.601806	644.544	01:22:19.296	2024-01-18
-0.362	0.016	-9.788	-0.208204	-0.357844	-0.019821	-0.001376	-2.185923	26.601615	644.558	01:22:19.310	2024-01-18
-0.380	0.030	-9.808	-0.117915	-0.115231	-0.030257	0.000516	-2.181459	26.601403	644.572	01:22:19.324	2024-01-18
-0.385	0.034	-9.806	0.124161	0.259776	0.017545	0.002137	-2.178183	26.601586	644.586	01:22:19.338	2024-01-18
-0.360	0.021	-9.787	0.217341	0.473721	0.039043	0.004703	-2.173020	26.602175	644.600	01:22:19.352	2024-01-18
-0.339	-0.001	-9.776	0.153812	0.320403	0.037291	0.006345	-2.169689	26.602678	644.614	01:22:19.366	2024-01-18
-0.335	-0.016	-9.754	-0.030042	0.034236	0.002755	0.006547	-2.169221	26.602993	644.628	01:22:19.380	2024-01-18
-0.351	-0.006	-9.785	-0.129376	-0.253442	-0.034852	0.004795	-2.173610	26.602508	644.642	01:22:19.394	2024-01-18
-0.359	-0.003	-9.788	-0.128302	-0.273747	-0.024790	0.004114	-2.175215	26.602427	644.656	01:22:19.408	2024-01-18
-0.357	-0.001	-9.789	-0.117058	-0.239397	-0.013491	0.004236	-2.174733	26.602641	644.670	01:22:19.422	2024-01-18
-0.356	0.001	-9.789	-0.105814	-0.205047	-0.002192	0.004358	-2.174250	26.602859	644.684	01:22:19.436	2024-01-18
-0.354	0.003	-9.789	-0.094570	-0.170696	0.009107	0.004479	-2.173767	26.603075	644.698	01:22:19.450	2024-01-18
-0.352	0.005	-9.789	-0.083325	-0.136346	0.020407	0.004601	-2.173285	26.603293	644.712	01:22:19.464	2024-01-18
-0.350	0.006	-9.790	-0.072081	-0.101996	0.031706	0.004722	-2.172802	26.603505	644.726	01:22:19.478	2024-01-18
-0.360	0.016	-9.790	-0.059338	-0.033133	-0.025978	0.004323	-2.173193	26.603107	644.740	01:22:19.492	2024-01-18
-0.365	0.011	-9.798	0.000907	0.066661	-0.008235	0.004661	-2.172578	26.602977	644.754	01:22:19.506	2024-01-18
-0.357	0.021	-9.793	0.102283	0.251079	0.018996	0.006097	-2.170428	26.603356	644.768	01:22:19.520	2024-01-18
-0.348	0.005	-9.784	0.088367	0.192522	0.037885	0.007099	-2.168691	26.603915	644.782	01:22:19.534	2024-01-18
-0.344	-0.009	-9.779	0.028635	0.077499	0.028066	0.007038	-2.168652	26.604239	644.796	01:22:19.548	2024-01-18
-0.353	-0.002	-9.779	-0.067051	-0.092370	-0.024594	0.006225	-2.170160	26.604417	644.810	01:22:19.562	2024-01-18
-0.360	0.008	-9.794	-0.073708	-0.165434	0.013850	0.005676	-2.173323	26.604673	644.824	01:22:19.576	2024-01-18
-0.366	0.015	-9.798	-0.088455	-0.060700	-0.010599	0.005180	-2.174682	26.604290	644.838	01:22:19.590	2024-01-18
-0.372	0.010	-9.800	-0.001938	-0.017012	-0.027189	0.004677	-2.175274	26.603915	644.852	01:22:19.604	2024-01-18
-0.365	0.006	-9.795	0.000630	0.032483	-0.009258	0.004106	-2.175752	26.604234	644.866	01:22:19.618	2024-01-18
-0.358	0.003	-9.790	0.003199	0.081977	0.008672	0.003535	-2.176231	26.604546	644.880	01:22:19.632	2024-01-18
-0.351	-0.000	-9.785	0.005767	0.131472	0.026603	0.002965	-2.176709	26.604854	644.894	01:22:19.646	2024-01-18
-0.350	0.003	-9.790	-0.053602	0.083718	-0.016568	0.002394	-2.177188	26.605163	644.908	01:22:19.660	2024-01-18
-0.358	0.014	-9.791	-0.018296	0.033984	0.009798	0.002305	-2.177465	26.605112	644.922	01:22:19.674	2024-01-18
-0.357	-0.001	-9.791	0.013635	0.046449	-0.000117	0.002208	-2.177860	26.605248	644.936	01:22:19.688	2024-01-18
-0.364	-0.002	-9.782	-0.018200	0.018056	0.017465	0.002341	-2.177794	26.605457	644.950	01:22:19.702	2024-01-18
-0.366	0.011	-9.789	-0.002150	0.087551	0.018845	0.003895	-2.174434	26.605224	644.964	01:22:19.716	2024-01-18
-0.372	0.023	-9.805	0.052358	0.148894	0.065261	0.005034	-2.172068	26.605400	644.978	01:22:19.730	2024-01-18
-0.358	0.022	-9.796	0.052549	0.190354	0.014903	0.005894	-2.170143	26.605699	644.992	01:22:19.744	2024-01-18
-0.347	0.009	-9.779	0.045265	0.194319	-0.002588	0.006470	-2.168326	26.605901	645.006	01:22:19.758	2024-01-18
-0.339	0.008	-9.778	-0.001863	-0.002264	0.006963	0.005836	-2.169831	26.604937	645.020	01:22:19.772	2024-01-18
-0.349	0.009	-9.785	0.009929	0.054755	0.017997	0.004999	-2.171889	26.603788	645.034	01:22:19.786	2024-01-18
-0.359	0.011	-9.792	0.021721	0.111774	0.029032	0.004163	-2.173948	26.602637	645.048	01:22:19.800	2024-01-18
-0.369	0.012	-9.798	0.033513	0.168793	0.040067	0.003327	-2.176006	26.601488	645.062	01:22:19.814	2024-01-18
-0.380	0.014	-9.805	0.045305	0.225812	0.051101	0.002490	-2.178065	26.600336	645.076	01:22:19.828	2024-01-18
-0.365	0.007	-9.799	0.100346	0.313987	0.012153	0.002021	-2.179406	26.599333	645.090	01:22:19.842	2024-01-18
-0.344	-0.000	-9.781	0.126541	0.292632	0.002443	0.003748	-2.176450	26.599243	645.104	01:22:19.856	2024-01-18
-0.328	0.011	-9.770	0.055170	0.063440	-0.009282	0.003823	-2.176779	26.599210	645.118	01:22:19.870	2024-01-18
-0.338	-0.002	-9.775	-0.101230	-0.179514	0.001912	0.002797	-2.179565	26.599093	645.132	01:22:19.884	2024-01-18
-0.355	0.004	-9.787	-0.137977	-0.345691	-0.028949	0.000674	-2.185204	26.598720	645.146	01:22:19.898	2024-01-18
-0.375	0.021	-9.801	-0.164291	-0.242089	0.014691	-0.000978	-2.188119	26.598934	645.160	01:22:19.912	2024-01-18
-0.383	0.024	-9.807	-0.011425	0.049504	0.001396	-0.001243	-2.188153	26.599250	645.174	01:22:19.926	2024-01-18
-0.376	0.020	-9.808	0.124772	0.336491	0.021010	0.000236	-2.184950	26.599607	645.188	01:22:19.940	2024-01-18
-0.349	0.008	-9.794	0.175601	0.384195	0.022499	0.002812	-2.180473	26.599359	645.202	01:22:19.954	2024-01-18
-0.347	-0.002	-9.789	0.085354	0.251222	0.008569	0.003289	-2.179601	26.599379	645.216	01:22:19.968	2024-01-18
-0.350	0.002	-9.788	-0.027271	0.043379	0.006212	0.002191	-2.181432	26.599591	645.230	01:22:19.982	2024-01-18
-0.353	0.005	-9.786	-0.139896	-0.164464	0.003855	0.001092	-2.183262	26.599805	645.244	01:22:19.996	2024-01-18
-0.358	0.012	-9.794	-0.118054	-0.202012	-0.057057	0.000102	-2.185197	26.599511	645.258	01:22:20.010	2024-01-18
-0.368	0.016	-9.802	-0.045887	-0.004693	-0.020224	-0.000469	-2.186234	26.599205	645.272	01:22:20.024	2024-01-18
-0.366	0.024	-9.797	0.049882	0.144812	0.038764	-0.000102	-2.184926	26.599396	645.286	01:22:20.038	2024-01-18
-0.363	0.018	-9.794	0.094836	0.223510	0.019284	0.000880	-2.182430	26.599902	645.300	01:22:20.052	2024-01-18
-0.353	0.003	-9.779	0.060040	0.198072	0.027304	0.001821	-2.180500	26.600132	645.314	01:22:20.066	2024-01-18
-0.351	0.006	-9.787	0.036382	0.110263	-0.005869	0.002574	-2.179587	26.599939	645.328	01:22:20.080	2024-01-18
-0.351	0.000	-9.782	-0.054135	-0.015212	-0.005926	0.001738	-2.180824	26.600062	645.342	01:22:20.094	2024-01-18
-0.356	0.003	-9.780	-0.080793	-0.064231	-0.030272	0.001306	-2.181330	26.600020	645.356	01:22:20.108	2024-01-18
-0.355	0.002	-9.779	-0.069522	-0.039815	-0.034780	0.001178	-2.181286	26.599854	645.370	01:22:20.122	2024-01-18
-0.353	-0.000	-9.778	-0.052361	-0.005790	-0.027090	0.001050	-2.181242	26.599685	645.384	01:22:20.136	2024-01-18
-0.352	-0.002	-9.777	-0.035199	0.028234	-0.019400	0.000922	-2.181199	26.599518	645.398	01:22:20.150	2024-01-18
-0.350	-0.003	-9.776	-0.018038	0.062259	-0.011710	0.000794	-2.181155	26.599350	645.412	01:22:20.164	2024-01-18
-0.349	-0.005	-9.776	-0.000877	0.096284	-0.004021	0.000666	-2.181112	26.599183	645.426	01:22:20.178	2024-01-18
-0.347	-0.006	-9.777	0.003945	0.105781	0.006267	0.000537	-2.181069	26.599023	645.440	01:22:20.192	2024-01-18
-0.357	0.002	-9.785	-0.036437	-0.003215	0.008050	0.003430	-2.176307	26.599832	645.454	01:22:20.206	2024-01-18
-0.353	0.009	-9.786	-0.069742	-0.105956	-0.048407	0.010351	-2.165255	26.601977	645.468	01:22:20.220	2024-01-18
-0.355	0.013	-9.788	-0.056212	-0.063682	-0.012422	0.009681	-2.166539	26.601831	645.482	01:22:20.234	2024-01-18
-0.362	0.012	-9.798	-0.029813	0.008889	0.001975	0.009540	-2.166928	26.601842	645.496	01:22:20.248	2024-01-18
-0.362	0.001	-9.783	-0.003080	0.050965	-0.002464	0.009810	-2.166490	26.601912	645.510	01:22:20.262	2024-01-18
-0.362	0.006	-9.791	0.040071	0.140403	-0.027091	0.010171	-2.165120	26.601591	645.524	01:22:20.276	2024-01-18
-0.373	0.004	-9.789	0.022813	0.195793	-0.018264	0.011309	-2.162719	26.601517	645.538	01:22:20.290	2024-01-18
-0.355	0.020	-9.786	0.085120	0.220207	0.000904	0.013216	-2.159654	26.601427	645.552	01:22:20.304	2024-01-18
-0.347	0.011	-9.786	0.070056	0.162308	-0.002822	0.016271	-2.155955	26.601065	645.566	01:22:20.318	2024-01-18
-0.353	0.007	-9.783	-0.015846	-0.010572	-0.008568	0.015171	-2.158935	26.601022	645.580	01:22:20.332	2024-01-18
-0.360	0.010	-9.781	-0.122059	-0.194849	-0.012513	0.013377	-2.163029	26.601019	645.594	01:22:20.346	2024-01-18
-0.367	0.013	-9.779	-0.228272	-0.379127	-0.016459	0.011583	-2.167122	26.601022	645.608	01:22:20.360	2024-01-18
-0.385	0.027	-9.803	-0.111915	-0.114616	-0.047877	0.011049	-2.168228	26.600836	645.622	01:22:20.374	2024-01-18
-0.392	0.028	-9.813	0.091733	0.248397	0.020957	0.012412	-2.164831	26.600648	645.636	01:22:20.388	2024-01-18
-0.371	0.017	-9.805	0.234814	0.617812	-0.016871	0.014109	-2.160162	26.600850	645.650	01:22:20.402	2024-01-18
-0.325	0.002	-9.778	0.261151	0.578594	0.013383	0.009273	-2.168125	26.603315	645.664	01:22:20.416	2024-01-18
-0.313	-0.013	-9.761	0.057172	0.189135	0.050765	0.007530	-2.171508	26.604323	645.678	01:22:20.430	2024-01-18
-0.333	-0.011	-9.765	-0.110994	-0.226399	0.005925	0.006104	-2.174534	26.604651	645.692	01:22:20.444	2024-01-18
-0.361	0.008	-9.781	-0.252449	-0.403310	-0.002150	0.002378	-2.181246	26.604739	645.706	01:22:20.458	2024-01-18
-0.379	0.017	-9.799	-0.205545	-0.322543	0.027260	0.002012	-2.181909	26.604832	645.720	01:22:20.472	2024-01-18
-0.369	0.013	-9.794	-0.172369	-0.273036	0.023837	0.002207	-2.181565	26.604929	645.734	01:22:20.486	2024-01-18
-0.359	0.009	-9.789	-0.139193	-0.223529	0.020415	0.002402	-2.181221	26.605025	645.748	01:22:20.500	2024-01-18
-0.350	0.005	-9.784	-0.106018	-0.174022	0.016992	0.002596	-2.180876	26.605115	645.762	01:22:20.514	2024-01-18
-0.340	0.000	-9.779	-0.072842	-0.124515	0.013570	0.002791	-2.180532	26.605216	645.776	01:22:20.528	2024-01-18
-0.333	-0.001	-9.776	-0.061904	-0.101343	0.012615	0.002727	-2.180672	26.605325	645.790	01:22:20.542	2024-01-18
-0.345	0.013	-9.786	-0.123305	-0.175673	0.006774	0.001116	-2.183717	26.605542	645.804	01:22:20.556	2024-01-18
-0.370	0.013	-9.801	-0.095438	-0.126355	-0.019487	0.000517	-2.185589	26.605474	645.818	01:22:20.570	2024-01-18
-0.379	0.014	-9.797	0.041118	0.065468	-0.001394	0.000609	-2.185940	26.605441	645.832	01:22:20.584	2024-01-18
-0.366	0.003	-9.793	0.068908	0.199482	-0.005211	0.001417	-2.183659	26.605771	645.846	01:22:20.598	2024-01-18
-0.358	0.006	-9.787	0.073465	0.232229	0.009987	-0.004504	-2.194116	26.606193	645.860	01:22:20.612	2024-01-18
-0.350	0.004	-9.784	0.025829	0.131130	-0.009909	-0.008779	-2.201514	26.606310	645.874	01:22:20.626	2024-01-18
-0.341	0.008	-9.784	-0.040386	-0.037890	-0.021732	-0.009366	-2.202001	26.605983	645.888	01:22:20.640	2024-01-18
-0.344	0.006	-9.787	-0.065943	-0.109328	-0.030825	-0.010455	-2.205173	26.605627	645.902	01:22:20.654	2024-01-18
-0.365	0.007	-9.791	-0.040497	-0.137094	-0.012297	-0.011842	-2.208595	26.605810	645.916	01:22:20.668	2024-01-18
-0.368	0.006	-9.789	0.016437	-0.018002	-0.004146	-0.013451	-2.212207	26.606389	645.930	01:22:20.682	2024-01-18
-0.367	0.006	-9.786	0.075824	0.109991	0.003429	-0.015060	-2.215818	26.606973	645.944	01:22:20.696	2024-01-18
-0.366	0.006	-9.784	0.135212	0.237983	0.011003	-0.016669	-2.219429	26.607559	645.958	01:22:20.710	2024-01-18
-0.354	0.005	-9.788	0.114932	0.305364	0.016376	-0.017642	-2.221573	26.608189	645.972	01:22:20.724	2024-01-18
-0.345	0.005	-9.777	0.071813	0.221339	0.043853	-0.017026	-2.220049	26.608921	645.986	01:22:20.738	2024-01-18
-0.331	0.015	-9.786	-0.023554	0.070879	0.037832	-0.017498	-2.220425	26.609194	646.000	01:22:20.752	2024-01-18
-0.341	0.011	-9.791	-0.067985	-0.107201	0.005486	-0.018628	-2.222490	26.609469	646.014	01:22:20.766	2024-01-18
-0.350	0.018	-9.787	-0.103514	-0.196717	0.000151	-0.020393	-2.226384	26.609848	646.028	01:22:20.780	2024-01-18
-0.363	0.014	-9.793	-0.104272	-0.156298	-0.012156	-0.021541	-2.229016	26.609556	646.042	01:22:20.794	2024-01-18
-0.367	0.015	-9.792	0.000110	-0.014529	-0.027802	-0.022019	-2.230043	26.609686	646.056	01:22:20.808	2024-01-18
-0.366	0.014	-9.793	0.013098	0.137908	0.042342	-0.022034	-2.229975	26.610055	646.070	01:22:20.822	2024-01-18
-0.357	0.011	-9.795	0.054729	0.230291	-0.008677	-0.022289	-2.230576	26.609922	646.084	01:22:20.836	2024-01-18
-0.361	0.011	-9.796	0.027922	0.154409	-0.008946	-0.022544	-2.231176	26.609794	646.098	01:22:20.850	2024-01-18
-0.364	0.010	-9.797	0.001114	0.078526	-0.009216	-0.022799	-2.231777	26.609664	646.112	01:22:20.864	2024-01-18
-0.367	0.009	-9.799	-0.025693	0.002644	-0.009485	-0.023054	-2.232378	26.609538	646.126	01:22:20.878	2024-01-18
-0.370	0.009	-9.800	-0.052501	-0.073238	-0.009754	-0.023309	-2.232978	26.609410	646.140	01:22:20.892	2024-01-18
-0.378	0.016	-9.809	-0.047692	-0.005830	0.012143	-0.021438	-2.228323	26.609370	646.154	01:22:20.906	2024-01-18
-0.371	0.030	-9.807	0.058998	0.207478	-0.016266	-0.016730	-2.216660	26.609447	646.168	01:22:20.920	2024-01-18
-0.352	0.015	-9.796	0.100095	0.290726	0.037793	-0.015101	-2.213364	26.609577	646.182	01:22:20.934	2024-01-18
-0.350	0.008	-9.776	0.068045	0.218518	0.009998	-0.014465	-2.211567	26.609703	646.196	01:22:20.948	2024-01-18
-0.350	0.006	-9.774	-0.022582	0.016902	0.007280	-0.014622	-2.211175	26.609813	646.210	01:22:20.962	2024-01-18
-0.360	0.011	-9.786	-0.033843	-0.047637	-0.024822	-0.015058	-2.212476	26.609789	646.224	01:22:20.976	2024-01-18
-0.367	0.011	-9.797	-0.032922	-0.054105	-0.000495	-0.015387	-2.212930	26.609862	646.238	01:22:20.990	2024-01-18
-0.362	0.008	-9.800	-0.004154	0.086286	0.016486	-0.014144	-2.210970	26.609819	646.252	01:22:21.004	2024-01-18
-0.363	0.016	-9.796	0.055283	0.132929	0.013162	-0.009079	-2.203824	26.609389	646.266	01:22:21.018	2024-01-18
-0.361	0.015	-9.795	0.054542	0.115962	0.002544	-0.008138	-2.202464	26.609058	646.280	01:22:21.032	2024-01-18
-0.359	0.015	-9.793	0.040027	0.091418	-0.013897	-0.007885	-2.202068	26.608745	646.294	01:22:21.046	2024-01-18
-0.356	0.014	-9.792	0.025513	0.066874	-0.030337	-0.007632	-2.201672	26.608431	646.308	01:22:21.060	2024-01-18
-0.355	0.010	-9.789	0.003264	0.045667	-0.037680	-0.007378	-2.201277	26.608114	646.322	01:22:21.074	2024-01-18
-0.348	0.010	-9.785	-0.002294	0.050552	-0.027328	-0.007510	-2.201525	26.607743	646.336	01:22:21.088	2024-01-18
-0.351	0.011	-9.779	-0.062225	-0.047870	-0.021289	-0.007955	-2.202214	26.607398	646.350	01:22:21.102	2024-01-18
-0.364	0.009	-9.789	-0.054312	-0.003795	0.012286	-0.008552	-2.202651	26.607470	646.364	01:22:21.116	2024-01-18
-0.372	0.016	-9.799	-0.020771	0.085923	0.025668	-0.008479	-2.201989	26.607357	646.378	01:22:21.130	2024-01-18
-0.360	0.012	-9.799	0.046302	0.163664	-0.032254	-0.007968	-2.200452	26.607256	646.392	01:22:21.144	2024-01-18
-0.356	0.009	-9.783	0.060749	0.250455	0.019911	-0.007032	-2.197829	26.607391	646.406	01:22:21.158	2024-01-18
-0.349	0.005	-9.780	0.087664	0.157483	-0.025272	-0.005813	-2.196638	26.607120	646.420	01:22:21.172	2024-01-18
-0.344	-0.005	-9.779	0.048752	0.030894	0.006873	-0.004633	-2.195797	26.607164	646.434	01:22:21.186	2024-01-18
-0.344	-0.003	-9.782	0.000465	-0.008679	0.011149	-0.003569	-2.195103	26.607741	646.448	01:22:21.200	2024-01-18
-0.346	0.003	-9.784	0.007915	0.014616	0.001957	-0.002505	-2.194409	26.608312	646.462	01:22:21.214	2024-01-18
-0.348	0.009	-9.787	0.015364	0.037911	-0.007234	-0.001441	-2.193715	26.608882	646.476	01:22:21.228	2024-01-18
-0.351	0.015	-9.789	0.022813	0.061206	-0.016426	-0.000376	-2.193021	26.609456	646.490	01:22:21.242	2024-01-18
-0.351	0.012	-9.790	0.038043	0.062517	-0.012278	0.000688	-2.192327	26.610028	646.504	01:22:21.256	2024-01-18
-0.352	0.003	-9.784	-0.007990	-0.001780	-0.003808	0.000351	-2.192883	26.610161	646.518	01:22:21.270	2024-01-18
-0.359	-0.000	-9.790	-0.051228	-0.033870	-0.003027	-0.000470	-2.194124	26.610209	646.532	01:22:21.284	2024-01-18
-0.353	0.005	-9.791	-0.050591	-0.093815	0.003726	-0.001099	-2.195828	26.610518	646.546	01:22:21.298	2024-01-18
-0.355	0.004	-9.787	-0.059344	-0.104455	-0.003058	0.001150	-2.191215	26.608715	646.560	01:22:21.312	2024-01-18
-0.364	0.011	-9.794	-0.076182	-0.065879	-0.007716	0.002371	-2.188405	26.607512	646.574	01:22:21.326	2024-01-18
-0.371	0.014	-9.795	-0.097930	-0.015993	0.036652	0.001584	-2.189403	26.607582	646.588	01:22:21.340	2024-01-18
-0.365	0.017	-9.794	-0.017114	0.012687	-0.053852	0.001586	-2.189260	26.607159	646.602	01:22:21.354	2024-01-18
-0.359	0.013	-9.794	0.056695	0.128221	0.038088	0.001960	-2.188222	26.607330	646.616	01:22:21.368	2024-01-18
-0.352	0.008	-9.777	0.033748	0.140032	0.046718	0.002491	-2.186821	26.607861	646.630	01:22:21.382	2024-01-18
-0.361	0.013	-9.781	-0.001031	0.094558	0.026600	0.002279	-2.187265	26.607810	646.644	01:22:21.396	2024-01-18
-0.370	0.017	-9.785	-0.035809	0.049084	0.006482	0.002067	-2.187708	26.607757	646.658	01:22:21.410	2024-01-18
-0.373	0.022	-9.793	-0.030312	0.037459	-0.012109	0.002042	-2.187537	26.607668	646.672	01:22:21.424	2024-01-18
-0.369	0.020	-9.799	0.007508	0.167736	-0.013331	0.002489	-2.185828	26.607492	646.686	01:22:21.438	2024-01-18
-0.355	0.018	-9.796	0.073552	0.224701	0.015737	0.003437	-2.183528	26.607533	646.700	01:22:21.452	2024-01-18
-0.346	0.001	-9.781	0.044981	0.137935	-0.012239	0.003863	-2.182650	26.607238	646.714	01:22:21.466	2024-01-18
-0.341	-0.003	-9.776	-0.037038	-0.083340	-0.046353	0.003480	-2.183798	26.606459	646.728	01:22:21.480	2024-01-18
-0.351	0.005	-9.783	-0.126941	-0.197819	-0.017858	0.001389	-2.187512	26.606553	646.742	01:22:21.494	2024-01-18
-0.372	0.014	-9.784	-0.158011	-0.220666	0.007733	-0.000470	-2.191962	26.606423	646.756	01:22:21.508	2024-01-18
-0.375	0.023	-9.804	-0.044241	0.005530	0.009773	-0.001719	-2.195841	26.606201	646.770	01:22:21.522	2024-01-18
-0.375	0.027	-9.810	0.086942	0.222260	0.023115	-0.000348	-2.192984	26.606406	646.784	01:22:21.536	2024-01-18
-0.373	0.021	-9.814	0.060171	0.193409	0.021740	-0.000887	-2.194393	26.606479	646.798	01:22:21.550	2024-01-18
-0.371	0.022	-9.812	-0.010943	0.081135	0.003759	-0.002191	-2.197507	26.606502	646.812	01:22:21.564	2024-01-18
-0.370	0.022	-9.811	-0.082057	-0.031138	-0.014221	-0.003495	-2.200621	26.606524	646.826	01:22:21.578	2024-01-18
-0.369	0.022	-9.810	-0.153170	-0.143411	-0.032202	-0.004799	-2.203736	26.606544	646.840	01:22:21.592	2024-01-18
-0.368	0.023	-9.809	-0.224284	-0.255684	-0.050183	-0.006102	-2.206850	26.606568	646.854	01:22:21.606	2024-01-18
-0.378	0.028	-9.818	-0.056773	-0.156962	0.003390	-0.007406	-2.209965	26.606585	646.868	01:22:21.620	2024-01-18
-0.371	0.028	-9.805	0.052580	0.088563	-0.018435	-0.006408	-2.208924	26.606527	646.882	01:22:21.634	2024-01-18
-0.356	0.007	-9.778	0.097028	0.073338	0.014135	-0.005801	-2.209619	26.606611	646.896	01:22:21.648	2024-01-18
-0.344	-0.002	-9.769	-0.047060	-0.147005	0.012069	-0.005837	-2.212062	26.606753	646.910	01:22:21.662	2024-01-18
-0.357	-0.008	-9.775	-0.148489	-0.320045	-0.003033	-0.007967	-2.217177	26.606691	646.924	01:22:21.676	2024-01-18
-0.372	0.018	-9.787	-0.168042	-0.311909	-0.003681	-0.009759	-2.221147	26.606561	646.938	01:22:21.690	2024-01-18
-0.382	0.023	-9.803	-0.058759	-0.102231	0.009129	-0.010863	-2.223402	26.606614	646.952	01:22:21.704	2024-01-18
-0.379	0.021	-9.794	-0.000013	0.111224	0.027867	-0.010585	-2.222510	26.607215	646.966	01:22:21.718	2024-01-18
-0.358	0.010	-9.784	0.060458	0.183493	0.034933	-0.012012	-2.225695	26.607369	646.980	01:22:21.732	2024-01-18
-0.340	0.004	-9.777	-0.008032	-0.020595	0.000930	-0.013723	-2.229558	26.607461	646.994	01:22:21.746	2024-01-18
-0.352	0.008	-9.784	-0.121177	-0.211360	0.006226	-0.015434	-2.233420	26.607545	647.008	01:22:21.760	2024-01-18
-0.364	0.012	-9.790	-0.234323	-0.402124	0.011521	-0.017145	-2.237283	26.607635	647.022	01:22:21.774	2024-01-18
-0.388	0.023	-9.811	-0.193825	-0.398134	0.036881	-0.018514	-2.240529	26.607868	647.036	01:22:21.788	2024-01-18
-0.394	0.023	-9.805	-0.043682	-0.058380	0.012655	-0.018386	-2.240656	26.607659	647.050	01:22:21.802	2024-01-18
-0.366	0.014	-9.799	0.058349	0.137287	0.025090	-0.010800	-2.224841	26.604067	647.064	01:22:21.816	2024-01-18
-0.338	-0.005	-9.779	0.051888	0.008882	0.099203	-0.009684	-2.222844	26.603781	647.078	01:22:21.830	2024-01-18
-0.330	-0.008	-9.755	-0.199362	-0.411136	0.020499	-0.012220	-2.228808	26.604476	647.092	01:22:21.844	2024-01-18
-0.339	-0.002	-9.761	-0.389000	-0.864094	0.031311	-0.017418	-2.240856	26.604316	647.106	01:22:21.858	2024-01-18
-0.382	0.021	-9.802	-0.461785	-0.954414	-0.019568	-0.023052	-2.252865	26.604080	647.120	01:22:21.872	2024-01-18
-0.438	0.049	-9.839	-0.248098	-0.409424	0.000874	-0.025546	-2.258581	26.603951	647.134	01:22:21.886	2024-01-18
-0.400	0.036	-9.802	0.171936	0.365075	-0.026353	-0.023758	-2.255916	26.603945	647.148	01:22:21.900	2024-01-18
-0.394	0.032	-9.800	0.121078	0.204562	-0.025475	-0.024964	-2.259804	26.603978	647.162	01:22:21.914	2024-01-18
-0.387	0.028	-9.797	0.070221	0.044049	-0.024598	-0.026171	-2.263692	26.604019	647.176	01:22:21.928	2024-01-18
-0.381	0.023	-9.795	0.019363	-0.116464	-0.023720	-0.027377	-2.267581	26.604055	647.190	01:22:21.942	2024-01-18
-0.374	0.019	-9.792	-0.031495	-0.276978	-0.022843	-0.028584	-2.271469	26.604091	647.204	01:22:21.956	2024-01-18
-0.443	0.021	-9.800	-0.061429	-0.066499	-0.041850	-0.028814	-2.271404	26.604138	647.218	01:22:21.970	2024-01-18
-0.370	0.025	-9.778	0.022697	0.216923	0.007809	-0.028995	-2.270895	26.604132	647.232	01:22:21.984	2024-01-18
-0.337	0.015	-9.769	-0.082778	-0.131188	-0.024551	-0.030025	-2.273234	26.603985	647.246	01:22:21.998	2024-01-18
-0.374	0.023	-9.801	-0.168190	-0.294074	-0.015344	-0.031307	-2.276543	26.603580	647.260	01:22:22.012	2024-01-18
-0.381	0.034	-9.810	-0.033049	-0.092856	-0.009957	-0.032346	-2.279591	26.603129	647.274	01:22:22.026	2024-01-18
-0.355	0.013	-9.778	-0.065280	-0.184351	-0.043176	-0.033006	-2.282072	26.602711	647.288	01:22:22.040	2024-01-18
-0.405	0.019	-9.783	-0.115836	-0.158226	-0.030288	-0.034106	-2.283017	26.602419	647.302	01:22:22.054	2024-01-18
-0.435	0.057	-9.791	0.147657	0.485200	-0.002727	-0.033857	-2.282020	26.602332	647.316	01:22:22.068	2024-01-18
-0.452	0.020	-9.789	0.419770	0.963602	-0.052907	-0.032599	-2.279566	26.602407	647.330	01:22:22.082	2024-01-18
-0.420	0.008	-9.777	0.163486	0.404595	-0.040953	-0.031340	-2.277111	26.602485	647.344	01:22:22.096	2024-01-18
-0.388	-0.004	-9.764	-0.092798	-0.154412	-0.028999	-0.030081	-2.274657	26.602564	647.358	01:22:22.110	2024-01-18
-0.356	-0.015	-9.751	-0.349082	-0.713419	-0.017045	-0.028822	-2.272202	26.602637	647.372	01:22:22.124	2024-01-18
-0.323	-0.027	-9.738	-0.605365	-1.272427	-0.005092	-0.027563	-2.269747	26.602716	647.386	01:22:22.138	2024-01-18
-0.503	0.041	-9.852	-0.543332	-0.824232	-0.027171	-0.029148	-2.270928	26.602800	647.400	01:22:22.152	2024-01-18
-0.480	0.067	-9.831	0.306076	0.694196	0.002877	-0.027568	-2.266782	26.602923	647.414	01:22:22.166	2024-01-18
-0.328	-0.010	-9.777	0.464988	0.853966	0.026165	-0.021136	-2.254727	26.603105	647.428	01:22:22.180	2024-01-18
-0.301	-0.031	-9.764	0.079849	0.214129	0.006984	-0.021666	-2.255887	26.602952	647.442	01:22:22.194	2024-01-18
-0.290	-0.004	-9.748	-0.296463	-0.623473	-0.022187	-0.024860	-2.263096	26.602584	647.456	01:22:22.208	2024-01-18
-0.408	0.031	-9.821	-0.385204	-0.696193	-0.064180	-0.029067	-2.272470	26.602142	647.470	01:22:22.222	2024-01-18
-0.458	0.064	-9.819	0.066072	0.255716	0.027103	-0.027370	-2.267608	26.602234	647.484	01:22:22.236	2024-01-18
-0.359	0.012	-9.768	0.320207	0.604168	-0.026062	-0.026565	-2.265897	26.602062	647.498	01:22:22.250	2024-01-18
-0.329	-0.005	-9.764	0.099328	0.152191	-0.055071	-0.026118	-2.265445	26.601782	647.512	01:22:22.264	2024-01-18
-0.344	-0.002	-9.769	0.069980	0.142981	-0.052866	-0.025671	-2.264993	26.601505	647.526	01:22:22.278	2024-01-18
-0.359	0.002	-9.774	0.040631	0.133772	-0.050660	-0.025224	-2.264541	26.601229	647.540	01:22:22.292	2024-01-18
-0.373	0.005	-9.779	0.011283	0.124563	-0.048455	-0.024777	-2.264089	26.600954	647.554	01:22:22.306	2024-01-18
-0.388	0.009	-9.783	-0.018065	0.115353	-0.046249	-0.024329	-2.263637	26.600675	647.568	01:22:22.320	2024-01-18
-0.378	0.019	-9.799	-0.003440	0.102307	0.003525	-0.024196	-2.262484	26.600626	647.582	01:22:22.334	2024-01-18
-0.357	0.018	-9.793	0.036258	0.090807	0.001432	-0.023724	-2.262057	26.600537	647.596	01:22:22.348	2024-01-18
-0.348	-0.003	-9.769	0.032819	-0.012692	-0.006531	-0.023252	-2.262499	26.600448	647.610	01:22:22.362	2024-01-18
-0.372	-0.003	-9.778	-0.063711	-0.108578	-0.018323	-0.024291	-2.264899	26.600395	647.624	01:22:22.376	2024-01-18
-0.401	0.016	-9.793	-0.046370	0.032403	-0.012894	-0.024635	-2.265216	26.599998	647.638	01:22:22.390	2024-01-18
-0.384	0.018	-9.800	0.037347	0.120230	-0.016488	-0.024504	-2.264552	26.599646	647.652	01:22:22.404	2024-01-18
-0.354	0.011	-9.792	0.045111	0.127805	0.004215	-0.023876	-2.263517	26.599738	647.666	01:22:22.418	2024-01-18
-0.362	0.013	-9.787	0.005610	0.017928	0.001547	-0.023580	-2.263504	26.599823	647.680	01:22:22.432	2024-01-18
-0.365	0.010	-9.793	-0.026166	0.019709	-0.003886	-0.023397	-2.263523	26.599868	647.694	01:22:22.446	2024-01-18
-0.367	0.014	-9.791	-0.010296	0.044598	-0.000888	-0.023288	-2.263355	26.599875	647.708	01:22:22.460	2024-01-18
-0.370	0.018	-9.789	0.005574	0.069487	0.002110	-0.023179	-2.263187	26.599880	647.722	01:22:22.474	2024-01-18
-0.372	0.022	-9.787	0.021444	0.094376	0.005108	-0.023071	-2.263019	26.599880	647.736	01:22:22.488	2024-01-18
-0.352	0.011	-9.785	0.023663	0.068764	-0.008830	-0.022927	-2.262984	26.599907	647.750	01:22:22.502	2024-01-18
-0.369	0.013	-9.787	0.008993	0.001736	0.008007	-0.022570	-2.263744	26.600054	647.764	01:22:22.516	2024-01-18
-0.390	0.016	-9.788	0.002879	0.018643	-0.023098	-0.022384	-2.263840	26.600148	647.778	01:22:22.530	2024-01-18
-0.390	0.008	-9.791	0.010565	0.063918	0.016415	-0.022264	-2.263604	26.600211	647.792	01:22:22.544	2024-01-18
-0.380	0.011	-9.781	0.017905	0.095479	-0.004174	-0.022140	-2.263197	26.600257	647.806	01:22:22.558	2024-01-18
-0.366	0.011	-9.785	0.060169	0.077414	0.012603	-0.021810	-2.262952	26.600233	647.820	01:22:22.572	2024-01-18
-0.365	0.010	-9.787	-0.014640	0.025382	-0.011383	-0.021772	-2.263206	26.600042	647.834	01:22:22.586	2024-01-18
-0.382	0.010	-9.786	-0.037732	-0.037772	-0.037178	-0.022171	-2.264089	26.599649	647.848	01:22:22.600	2024-01-18
-0.374	0.020	-9.783	-0.029209	-0.011815	-0.019373	-0.021974	-2.264147	26.599548	647.862	01:22:22.614	2024-01-18
-0.372	0.018	-9.785	-0.011878	0.005804	-0.017557	-0.021757	-2.264196	26.599417	647.876	01:22:22.628	2024-01-18
-0.371	0.016	-9.787	0.005453	0.023422	-0.015741	-0.021524	-2.264239	26.599267	647.890	01:22:22.642	2024-01-18
-0.369	0.014	-9.789	0.022784	0.041041	-0.013926	-0.021292	-2.264282	26.599115	647.904	01:22:22.656	2024-01-18
-0.367	0.012	-9.791	0.040115	0.058660	-0.012110	-0.021059	-2.264325	26.598959	647.918	01:22:22.670	2024-01-18
-0.382	0.021	-9.788	-0.008481	0.017149	0.009370	-0.021035	-2.264394	26.598842	647.932	01:22:22.684	2024-01-18
-0.378	0.020	-9.790	-0.028114	0.015892	-0.014993	-0.021534	-2.264532	26.598819	647.946	01:22:22.698	2024-01-18
-0.382	0.016	-9.785	0.009249	0.057926	0.024360	-0.021753	-2.264238	26.598946	647.960	01:22:22.712	2024-01-18
-0.371	0.009	-9.789	-0.023924	0.067374	0.001712	-0.021672	-2.263948	26.599166	647.974	01:22:22.726	2024-01-18
-0.355	0.012	-9.795	0.060324	0.067458	0.039270	-0.021252	-2.263760	26.599477	647.988	01:22:22.740	2024-01-18
-0.369	0.010	-9.789	0.024997	0.022383	-0.032791	-0.021140	-2.264248	26.599185	648.002	01:22:22.754	2024-01-18
-0.379	0.011	-9.788	-0.019802	0.008133	0.025902	-0.021121	-2.264591	26.599151	648.016	01:22:22.768	2024-01-18
-0.382	0.019	-9.783	-0.007020	0.038114	0.011267	-0.021168	-2.264824	26.599301	648.030	01:22:22.782	2024-01-18
-0.378	0.008	-9.791	0.025356	0.052882	-0.012782	-0.021195	-2.265065	26.599407	648.044	01:22:22.796	2024-01-18
-0.372	0.009	-9.793	0.001523	0.048441	-0.036814	-0.021222	-2.265306	26.599514	648.058	01:22:22.810	2024-01-18
-0.370	0.014	-9.793	-0.016137	0.015011	-0.018969	-0.021248	-2.265547	26.599618	648.072	01:22:22.824	2024-01-18
-0.368	0.019	-9.793	-0.033796	-0.018420	-0.001125	-0.021275	-2.265787	26.599721	648.086	01:22:22.838	2024-01-18
-0.369	0.019	-9.791	-0.033775	-0.034673	0.013809	-0.021302	-2.266028	26.599829	648.100	01:22:22.852	2024-01-18
-0.371	0.013	-9.786	0.012003	0.010751	-0.003036	-0.021222	-2.266180	26.599615	648.114	01:22:22.866	2024-01-18
-0.379	0.026	-9.796	-0.016893	0.077091	-0.034856	-0.020999	-2.266212	26.598970	648.128	01:22:22.880	2024-01-18
-0.372	0.009	-9.795	0.008199	0.085771	0.020075	-0.021093	-2.265761	26.599496	648.142	01:22:22.894	2024-01-18
-0.367	0.008	-9.784	-0.024592	0.074113	0.028812	-0.021210	-2.265534	26.600025	648.156	01:22:22.908	2024-01-18
-0.367	0.014	-9.788	-0.014461	0.028394	0.046279	-0.021284	-2.265602	26.600505	648.170	01:22:22.922	2024-01-18
-0.382	0.015	-9.784	0.026476	-0.009430	-0.009489	-0.020984	-2.266426	26.600704	648.184	01:22:22.936	2024-01-18
-0.380	0.004	-9.784	0.013627	0.102426	0.039009	-0.020882	-2.266237	26.600985	648.198	01:22:22.950	2024-01-18
-0.373	0.012	-9.792	0.004966	0.064219	0.015454	-0.020806	-2.265822	26.601249	648.212	01:22:22.964	2024-01-18
-0.369	0.015	-9.789	0.007404	0.064872	-0.001766	-0.020594	-2.265857	26.601369	648.226	01:22:22.978	2024-01-18
-0.369	0.015	-9.789	0.008122	0.061740	-0.002885	-0.020796	-2.266090	26.601490	648.240	01:22:22.992	2024-01-18
-0.369	0.015	-9.788	0.008841	0.058607	-0.004005	-0.021067	-2.266357	26.601611	648.254	01:22:23.006	2024-01-18
-0.368	0.015	-9.787	0.009559	0.055474	-0.005124	-0.021338	-2.266624	26.601739	648.268	01:22:23.020	2024-01-18
-0.368	0.016	-9.786	-0.000615	0.057170	0.006750	-0.021608	-2.266890	26.601859	648.282	01:22:23.034	2024-01-18
-0.377	0.012	-9.784	-0.006888	0.072121	0.008330	-0.021682	-2.266967	26.602255	648.296	01:22:23.048	2024-01-18
-0.373	0.011	-9.786	-0.004125	0.041938	0.029938	-0.021638	-2.267003	26.602829	648.310	01:22:23.062	2024-01-18
-0.375	0.008	-9.788	-0.008882	0.004895	0.026878	-0.021783	-2.267645	26.603256	648.324	01:22:23.076	2024-01-18
-0.371	0.011	-9.786	-0.015414	-0.000983	0.006646	-0.022100	-2.268288	26.603396	648.338	01:22:23.090	2024-01-18
-0.377	0.016	-9.790	-0.027058	0.021013	0.023433	-0.022419	-2.268694	26.603519	648.352	01:22:23.104	2024-01-18
-0.379	0.017	-9.788	-0.020406	0.048452	0.021290	-0.022569	-2.268506	26.603884	648.366	01:22:23.118	2024-01-18
-0.376	0.018	-9.786	0.024903	0.018068	-0.000544	-0.022222	-2.268734	26.603988	648.380	01:22:23.132	2024-01-18
-0.381	0.018	-9.790	-0.009489	0.051698	0.016451	-0.022017	-2.268835	26.604150	648.394	01:22:23.146	2024-01-18
-0.385	0.021	-9.784	-0.002361	0.036313	0.006999	-0.022110	-2.268671	26.604464	648.408	01:22:23.160	2024-01-18
-0.380	0.015	-9.785	-0.009825	0.032990	0.013394	-0.022203	-2.268507	26.604770	648.422	01:22:23.174	2024-01-18
-0.375	0.010	-9.786	-0.017289	0.029667	0.019790	-0.022296	-2.268343	26.605079	648.436	01:22:23.188	2024-01-18
-0.372	0.006	-9.789	-0.019719	0.031563	0.023896	-0.022343	-2.268231	26.605373	648.450	01:22:23.202	2024-01-18
-0.380	0.014	-9.791	0.018680	0.032402	0.015024	-0.022110	-2.268431	26.605523	648.464	01:22:23.216	2024-01-18
-0.380	0.016	-9.793	0.015759	0.078728	0.026192	-0.021682	-2.268045	26.605689	648.478	01:22:23.230	2024-01-18
-0.372	0.014	-9.790	0.023123	0.094153	-0.019483	-0.021360	-2.267701	26.605745	648.492	01:22:23.244	2024-01-18
-0.372	0.002	-9.796	0.006042	0.015529	-0.003466	-0.021500	-2.268045	26.605532	648.506	01:22:23.258	2024-01-18
-0.367	0.011	-9.784	-0.027831	0.032783	-0.032270	-0.021756	-2.268438	26.604745	648.520	01:22:23.272	2024-01-18
-0.370	0.021	-9.785	-0.010757	-0.017255	-0.010504	-0.021973	-2.269052	26.604464	648.534	01:22:23.286	2024-01-18
-0.379	0.013	-9.785	-0.034286	0.005823	0.007705	-0.022115	-2.269948	26.605001	648.548	01:22:23.300	2024-01-18
-0.377	0.017	-9.788	0.015280	0.005446	-0.000814	-0.021831	-2.270163	26.604758	648.562	01:22:23.314	2024-01-18
-0.376	0.023	-9.788	0.036352	0.001916	-0.042177	-0.021771	-2.270492	26.604782	648.576	01:22:23.328	2024-01-18
-0.376	0.020	-9.788	0.019724	0.012652	-0.032850	-0.021880	-2.270906	26.605025	648.590	01:22:23.342	2024-01-18
-0.375	0.016	-9.788	0.003096	0.023388	-0.023524	-0.021989	-2.271320	26.605267	648.604	01:22:23.356	2024-01-18
-0.374	0.013	-9.788	-0.013532	0.034123	-0.014197	-0.022098	-2.271734	26.605506	648.618	01:22:23.370	2024-01-18
-0.374	0.014	-9.789	-0.019897	0.070104	-0.002911	-0.022070	-2.271802	26.605646	648.632	01:22:23.384	2024-01-18
-0.373	0.024	-9.786	0.033886	0.105514	0.007632	-0.021703	-2.271003	26.605528	648.646	01:22:23.398	2024-01-18
-0.366	0.020	-9.780	0.019806	0.099396	0.029493	-0.021694	-2.270653	26.605897	648.660	01:22:23.412	2024-01-18
-0.368	0.024	-9.784	-0.007250	0.029802	-0.000317	-0.021881	-2.270629	26.606070	648.674	01:22:23.426	2024-01-18
-0.369	0.017	-9.794	-0.044163	0.035726	0.000180	-0.022250	-2.270938	26.605885	648.688	01:22:23.440	2024-01-18
-0.375	0.016	-9.791	-0.003046	0.082974	-0.026017	-0.022215	-2.270162	26.605820	648.702	01:22:23.454	2024-01-18
-0.369	0.014	-9.782	0.003026	0.045759	0.002532	-0.022145	-2.270175	26.605834	648.716	01:22:23.468	2024-01-18
-0.363	0.006	-9.795	0.002681	0.002647	-0.002653	-0.022081	-2.270657	26.605907	648.730	01:22:23.482	2024-01-18
-0.381	0.017	-9.790	-0.021918	0.047761	0.015225	-0.022202	-2.270399	26.605906	648.744	01:22:23.496	2024-01-18
-0.386	0.022	-9.791	-0.038276	0.079506	0.016474	-0.022352	-2.269854	26.605788	648.758	01:22:23.510	2024-01-18
-0.383	0.021	-9.791	-0.028490	0.088474	-0.001179	-0.022514	-2.269195	26.605609	648.772	01:22:23.524	2024-01-18
-0.381	0.020	-9.792	-0.018703	0.097442	-0.018833	-0.022675	-2.268535	26.605441	648.786	01:22:23.538	2024-01-18
-0.378	0.019	-9.792	-0.008917	0.106410	-0.036487	-0.022836	-2.267875	26.605264	648.800	01:22:23.552	2024-01-18
-0.372	0.019	-9.790	0.020990	0.108175	-0.027432	-0.022889	-2.267486	26.605011	648.814	01:22:23.566	2024-01-18
-0.366	0.011	-9.787	0.005659	0.027696	-0.057625	-0.022796	-2.267458	26.604656	648.828	01:22:23.580	2024-01-18
-0.376	0.008	-9.787	0.004537	0.069729	0.009908	-0.022856	-2.267122	26.604470	648.842	01:22:23.594	2024-01-18
-0.375	0.013	-9.791	-0.035427	0.045271	-0.013002	-0.022912	-2.267001	26.604673	648.856	01:22:23.608	2024-01-18
-0.369	0.008	-9.787	-0.013237	0.081058	0.030983	-0.022922	-2.266992	26.605095	648.870	01:22:23.622	2024-01-18
-0.373	0.008	-9.795	0.013290	0.045589	-0.014191	-0.022682	-2.266693	26.605050	648.884	01:22:23.636	2024-01-18
-0.370	0.027	-9.786	0.050920	0.112407	-0.004679	-0.022268	-2.266023	26.605006	648.898	01:22:23.650	2024-01-18
-0.373	0.016	-9.788	0.017596	0.082285	-0.013685	-0.021923	-2.265292	26.604980	648.912	01:22:23.664	2024-01-18
-0.368	0.015	-9.785	-0.038226	0.067747	-0.025987	-0.021919	-2.264774	26.604994	648.926	01:22:23.678	2024-01-18
-0.369	0.016	-9.787	-0.042240	0.073675	-0.009495	-0.021916	-2.264257	26.605011	648.940	01:22:23.692	2024-01-18
-0.371	0.017	-9.789	-0.038654	0.078538	0.003071	-0.021912	-2.263740	26.605021	648.954	01:22:23.706	2024-01-18
-0.373	0.018	-9.792	-0.035069	0.083400	0.015638	-0.021908	-2.263222	26.605038	648.968	01:22:23.720	2024-01-18
-0.374	0.020	-9.793	-0.027394	0.082533	0.028954	-0.021904	-2.262705	26.605057	648.982	01:22:23.734	2024-01-18
-0.375	0.021	-9.784	-0.017158	0.035599	0.010716	-0.021859	-2.262406	26.604929	648.996	01:22:23.748	2024-01-18
-0.378	0.011	-9.787	0.007062	0.093396	-0.006148	-0.021786	-2.262276	26.604680	649.010	01:22:23.762	2024-01-18
-0.371	0.017	-9.795	0.000448	0.055090	-0.033268	-0.021735	-2.262188	26.604273	649.024	01:22:23.776	2024-01-18
-0.370	0.016	-9.795	-0.009110	0.081477	0.031618	-0.021605	-2.262028	26.604413	649.038	01:22:23.790	2024-01-18
-0.377	0.019	-9.792	0.034963	0.023833	-0.000307	-0.021518	-2.262079	26.604716	649.052	01:22:23.804	2024-01-18
-0.382	0.020	-9.785	-0.029574	0.021387	0.017158	-0.021615	-2.262724	26.604881	649.066	01:22:23.818	2024-01-18
-0.374	0.016	-9.789	0.009299	-0.010562	-0.025754	-0.021697	-2.263100	26.604446	649.080	01:22:23.832	2024-01-18
-0.379	0.012	-9.789	0.001520	0.032966	0.011105	-0.021706	-2.263122	26.604169	649.094	01:22:23.846	2024-01-18
-0.376	0.019	-9.791	0.000708	0.099106	-0.004171	-0.021621	-2.262732	26.604232	649.108	01:22:23.860	2024-01-18
-0.373	0.016	-9.790	0.008204	0.092762	0.001036	-0.021537	-2.262342	26.604294	649.122	01:22:23.874	2024-01-18
-0.369	0.012	-9.788	0.015701	0.086417	0.006242	-0.021452	-2.261952	26.604359	649.136	01:22:23.888	2024-01-18
-0.366	0.009	-9.787	0.023198	0.080073	0.011449	-0.021368	-2.261562	26.604415	649.150	01:22:23.902	2024-01-18
-0.368	0.009	-9.786	0.028585	0.069213	-0.014474	-0.021283	-2.261171	26.604483	649.164	01:22:23.916	2024-01-18
-0.369	0.009	-9.792	0.006308	0.079025	0.011547	-0.020879	-2.260937	26.604502	649.178	01:22:23.930	2024-01-18
-0.372	0.012	-9.798	0.037906	0.047674	-0.001729	-0.020448	-2.260717	26.604546	649.192	01:22:23.944	2024-01-18
-0.378	0.009	-9.789	0.004765	0.081637	-0.005986	-0.020273	-2.260377	26.604702	649.206	01:22:23.958	2024-01-18
-0.378	0.011	-9.789	0.004313	0.105577	0.021056	-0.020331	-2.259763	26.604714	649.220	01:22:23.972	2024-01-18
-0.372	0.015	-9.791	-0.021382	0.055573	0.028308	-0.020436	-2.259558	26.604956	649.234	01:22:23.986	2024-01-18
-0.367	0.021	-9.788	0.004043	0.036758	0.011007	-0.020552	-2.259958	26.605516	649.248	01:22:24.000	2024-01-18
-0.372	0.016	-9.778	-0.038914	0.005527	-0.006532	-0.021163	-2.260565	26.605245	649.262	01:22:24.014	2024-01-18
-0.376	0.023	-9.783	-0.026493	0.004912	0.003574	-0.021323	-2.260698	26.605072	649.276	01:22:24.028	2024-01-18
-0.378	0.019	-9.785	-0.019698	0.023458	-0.003495	-0.021145	-2.260475	26.604984	649.290	01:22:24.042	2024-01-18
-0.379	0.017	-9.785	-0.014542	0.048489	-0.014536	-0.020966	-2.260252	26.604895	649.304	01:22:24.056	2024-01-18
-0.381	0.014	-9.785	-0.009386	0.073520	-0.025576	-0.020788	-2.260030	26.604804	649.318	01:22:24.070	2024-01-18
-0.383	0.011	-9.785	-0.004230	0.098551	-0.036617	-0.020610	-2.259807	26.604717	649.332	01:22:24.084	2024-01-18
-0.385	0.013	-9.788	0.038552	0.111444	-0.022704	-0.020432	-2.259585	26.604627	649.346	01:22:24.098	2024-01-18
-0.374	0.012	-9.784	0.038877	0.157557	0.005541	-0.020086	-2.258679	26.604683	649.360	01:22:24.112	2024-01-18
-0.369	0.020	-9.787	0.016398	0.077018	-0.000676	-0.019872	-2.258064	26.604593	649.374	01:22:24.126	2024-01-18
-0.366	0.017	-9.776	-0.007067	0.044383	-0.008092	-0.019870	-2.257987	26.604260	649.388	01:22:24.140	2024-01-18
-0.363	0.020	-9.787	-0.003404	-0.004826	-0.001565	-0.020034	-2.259049	26.604184	649.402	01:22:24.154	2024-01-18
-0.361	0.018	-9.782	-0.016768	0.013820	-0.019766	-0.020320	-2.260220	26.604149	649.416	01:22:24.168	2024-01-18
-0.372	0.013	-9.784	-0.045922	-0.078697	0.001980	-0.020685	-2.261448	26.604147	649.430	01:22:24.182	2024-01-18
-0.374	0.012	-9.786	-0.024735	-0.036129	0.001145	-0.020971	-2.262548	26.604135	649.444	01:22:24.196	2024-01-18
-0.377	0.013	-9.805	-0.006212	-0.049337	0.010678	-0.021104	-2.263530	26.604138	649.458	01:22:24.210	2024-01-18
-0.375	0.013	-9.804	0.014679	0.004635	-0.004963	-0.020986	-2.263885	26.604173	649.472	01:22:24.224	2024-01-18
-0.374	0.013	-9.802	0.035571	0.058608	-0.020605	-0.020394	-2.262786	26.604280	649.486	01:22:24.238	2024-01-18
-0.373	0.013	-9.801	0.056462	0.112580	-0.036246	-0.019801	-2.261687	26.604381	649.500	01:22:24.252	2024-01-18
-0.372	0.013	-9.799	0.077354	0.166552	-0.051887	-0.019209	-2.260588	26.604492	649.514	01:22:24.266	2024-01-18
-0.359	0.014	-9.790	0.093265	0.149260	-0.046315	-0.018617	-2.259489	26.604598	649.528	01:22:24.280	2024-01-18
-0.378	0.020	-9.780	0.035679	0.113426	0.010073	-0.018227	-2.258931	26.604502	649.542	01:22:24.294	2024-01-18
-0.376	0.021	-9.779	0.028713	0.062424	-0.010574	-0.017900	-2.258410	26.604381	649.556	01:22:24.308	2024-01-18
-0.371	0.019	-9.779	-0.003869	0.055315	-0.002778	-0.017707	-2.258084	26.604277	649.570	01:22:24.322	2024-01-18
-0.375	0.013	-9.786	-0.016361	0.027911	0.000051	-0.018038	-2.258782	26.604345	649.584	01:22:24.336	2024-01-18
-0.368	0.025	-9.789	-0.025791	-0.037540	0.022444	-0.018481	-2.259623	26.604661	649.598	01:22:24.350	2024-01-18
-0.381	0.019	-9.795	-0.024247	0.003563	0.008099	-0.018911	-2.260316	26.605007	649.612	01:22:24.364	2024-01-18
-0.380	0.013	-9.795	-0.046742	0.027486	0.049639	-0.019195	-2.260497	26.605177	649.626	01:22:24.378	2024-01-18
-0.377	0.011	-9.793	0.000522	0.033823	-0.019690	-0.019230	-2.260417	26.605074	649.640	01:22:24.392	2024-01-18
-0.359	0.013	-9.792	-0.013025	0.024815	-0.023485	-0.019223	-2.260295	26.604937	649.654	01:22:24.406	2024-01-18
-0.363	0.017	-9.786	-0.000673	0.049828	-0.014377	-0.019216	-2.260173	26.604791	649.668	01:22:24.420	2024-01-18
-0.367	0.020	-9.781	0.011678	0.074840	-0.005269	-0.019209	-2.260050	26.604644	649.682	01:22:24.434	2024-01-18
-0.370	0.016	-9.786	0.009551	0.123749	0.000200	-0.019111	-2.259792	26.604340	649.696	01:22:24.448	2024-01-18
-0.372	0.010	-9.789	-0.004105	0.063598	-0.031372	-0.019054	-2.259441	26.603947	649.710	01:22:24.462	2024-01-18
-0.369	0.015	-9.794	-0.039640	0.059751	-0.030581	-0.019654	-2.259152	26.603773	649.724	01:22:24.476	2024-01-18
-0.365	0.003	-9.796	0.034076	0.017068	0.029951	-0.019527	-2.259231	26.603822	649.738	01:22:24.490	2024-01-18
-0.371	0.016	-9.792	-0.007773	0.031063	-0.008781	-0.019202	-2.259500	26.603923	649.752	01:22:24.504	2024-01-18
-0.370	0.011	-9.779	0.017580	0.008262	0.009125	-0.019114	-2.259872	26.603930	649.766	01:22:24.518	2024-01-18
-0.372	0.013	-9.791	-0.007033	0.055071	0.009381	-0.019203	-2.260074	26.604046	649.780	01:22:24.532	2024-01-18
-0.379	0.014	-9.789	0.009681	0.023540	-0.009911	-0.019239	-2.260256	26.604126	649.794	01:22:24.546	2024-01-18
-0.385	0.019	-9.791	0.023982	0.049389	0.005500	-0.019164	-2.260447	26.604149	649.808	01:22:24.560	2024-01-18
-0.382	0.021	-9.790	0.026322	0.054935	-0.005997	-0.019047	-2.259949	26.603816	649.822	01:22:24.574	2024-01-18
-0.380	0.023	-9.789	0.028662	0.060481	-0.017494	-0.018929	-2.259452	26.603478	649.836	01:22:24.588	2024-01-18
-0.377	0.025	-9.787	0.031003	0.066028	-0.028991	-0.018812	-2.258954	26.603139	649.850	01:22:24.602	2024-01-18
-0.375	0.026	-9.786	0.033343	0.071574	-0.040488	-0.018694	-2.258456	26.602798	649.864	01:22:24.616	2024-01-18
-0.377	0.017	-9.781	0.000531	0.093748	0.026043	-0.018550	-2.258334	26.602777	649.878	01:22:24.630	2024-01-18
-0.366	0.015	-9.787	-0.005029	0.036495	-0.000211	-0.018435	-2.258369	26.602863	649.892	01:22:24.644	2024-01-18
-0.380	0.013	-9.789	-0.002028	0.047585	0.004978	-0.018424	-2.258418	26.602953	649.906	01:22:24.658	2024-01-18
-0.375	0.024	-9.787	-0.010564	0.013409	-0.003519	-0.018959	-2.258549	26.603046	649.920	01:22:24.672	2024-01-18
-0.371	0.011	-9.792	-0.043015	-0.000672	0.016978	-0.019446	-2.258998	26.603054	649.934	01:22:24.686	2024-01-18
-0.365	0.009	-9.784	-0.009792	0.036620	0.002882	-0.019750	-2.259852	26.602950	649.948	01:22:24.700	2024-01-18
-0.375	0.013	-9.788	-0.016017	0.037909	-0.006200	-0.019875	-2.259831	26.603146	649.962	01:22:24.714	2024-01-18
-0.376	0.021	-9.793	0.015227	0.019599	-0.000955	-0.019683	-2.259915	26.603124	649.976	01:22:24.728	2024-01-18
-0.367	0.019	-9.790	0.015963	0.034066	-0.020261	-0.019307	-2.260003	26.602979	649.990	01:22:24.742	2024-01-18
-0.367	0.018	-9.789	0.003288	0.046779	-0.013473	-0.019266	-2.259643	26.602945	650.004	01:22:24.756	2024-01-18
-0.368	0.018	-9.788	-0.009388	0.059492	-0.006684	-0.019224	-2.259283	26.602921	650.018	01:22:24.770	2024-01-18
-0.368	0.017	-9.787	-0.022063	0.072206	0.000105	-0.019183	-2.258922	26.602895	650.032	01:22:24.784	2024-01-18
-0.369	0.016	-9.786	-0.034738	0.084919	0.006893	-0.019142	-2.258562	26.602866	650.046	01:22:24.798	2024-01-18
-0.367	0.003	-9.789	0.018973	0.074555	-0.022629	-0.019020	-2.258477	26.602784	650.060	01:22:24.812	2024-01-18
-0.374	0.009	-9.791	-0.009540	0.071505	0.007221	-0.019064	-2.258342	26.602755	650.074	01:22:24.826	2024-01-18
-0.373	0.023	-9.785	0.006340	0.047045	-0.024553	-0.019346	-2.258083	26.602808	650.088	01:22:24.840	2024-01-18
-0.373	0.022	-9.789	-0.036900	0.017856	0.010171	-0.019371	-2.258501	26.602806	650.102	01:22:24.854	2024-01-18
-0.377	0.011	-9.788	0.010477	0.023365	-0.012355	-0.019509	-2.258681	26.602870	650.116	01:22:24.868	2024-01-18
-0.387	0.014	-9.786	-0.007017	0.057413	0.031708	-0.019676	-2.258663	26.602967	650.130	01:22:24.882	2024-01-18
-0.385	0.012	-9.789	-0.006110	0.070582	-0.018338	-0.019518	-2.258544	26.602875	650.144	01:22:24.896	2024-01-18
-0.374	0.010	-9.796	0.018627	0.046945	0.000530	-0.019361	-2.258398	26.602977	650.158	01:22:24.910	2024-01-18
-0.372	0.026	-9.784	-0.002163	0.050245	0.008241	-0.019203	-2.258240	26.603143	650.172	01:22:24.924	2024-01-18
-0.374	0.023	-9.785	-0.009755	0.054018	0.023569	-0.019045	-2.258082	26.603317	650.186	01:22:24.938	2024-01-18
-0.375	0.020	-9.786	-0.017347	0.057792	0.038897	-0.018887	-2.257925	26.603481	650.200	01:22:24.952	2024-01-18
-0.377	0.017	-9.786	-0.024939	0.061565	0.054225	-0.018730	-2.257768	26.603652	650.214	01:22:24.966	2024-01-18
-0.378	0.015	-9.787	-0.032532	0.065338	0.069553	-0.018572	-2.257610	26.603821	650.228	01:22:24.980	2024-01-18
-0.372	0.023	-9.785	0.025900	0.021283	-0.026268	-0.018266	-2.258043	26.603449	650.242	01:22:24.994	2024-01-18
-0.368	0.017	-9.789	-0.006129	0.051987	-0.008388	-0.018072	-2.258045	26.603016	650.256	01:22:25.008	2024-01-18
-0.376	0.023	-9.794	0.010711	0.056047	-0.047655	-0.018028	-2.257833	26.602643	650.270	01:22:25.022	2024-01-18
-0.379	0.022	-9.789	-0.036122	0.002828	-0.013855	-0.018381	-2.258278	26.602834	650.284	01:22:25.036	2024-01-18
-0.370	0.013	-9.778	-0.016410	0.048487	0.038293	-0.018563	-2.258516	26.602938	650.298	01:22:25.050	2024-01-18
-0.378	0.013	-9.786	0.030838	0.067002	-0.007543	-0.018511	-2.258491	26.602960	650.312	01:22:25.064	2024-01-18
-0.371	0.011	-9.783	0.024573	0.073167	0.014305	-0.018047	-2.258008	26.602909	650.326	01:22:25.078	2024-01-18
-0.366	0.017	-9.789	0.005040	0.030932	0.007876	-0.018011	-2.257939	26.602742	650.340	01:22:25.092	2024-01-18
-0.376	0.018	-9.786	0.004559	0.040377	0.001501	-0.018046	-2.257938	26.602552	650.354	01:22:25.106	2024-01-18
-0.375	0.016	-9.788	-0.014692	0.032617	-0.000892	-0.018081	-2.257937	26.602369	650.368	01:22:25.120	2024-01-18
-0.373	0.015	-9.790	-0.033942	0.024857	-0.003285	-0.018117	-2.257936	26.602180	650.382	01:22:25.134	2024-01-18
-0.372	0.013	-9.793	-0.053192	0.017097	-0.005679	-0.018152	-2.257935	26.602001	650.396	01:22:25.148	2024-01-18
-0.372	0.016	-9.784	-0.020868	0.039201	-0.043307	-0.018225	-2.257877	26.601886	650.410	01:22:25.162	2024-01-18
-0.370	0.015	-9.793	-0.028535	0.083152	-0.001162	-0.018525	-2.257483	26.602197	650.424	01:22:25.176	2024-01-18
-0.382	0.030	-9.796	0.023704	0.112233	-0.004790	-0.018423	-2.257063	26.601958	650.438	01:22:25.190	2024-01-18
-0.380	0.011	-9.783	0.004742	0.032216	-0.025670	-0.018288	-2.256776	26.601633	650.452	01:22:25.204	2024-01-18
-0.372	0.013	-9.787	-0.004064	0.063493	-0.003210	-0.018474	-2.256848	26.601676	650.466	01:22:25.218	2024-01-18
-0.374	0.015	-9.785	0.035536	0.035406	0.000805	-0.017813	-2.256836	26.601510	650.480	01:22:25.232	2024-01-18
-0.376	0.018	-9.788	0.041985	0.052203	-0.025986	-0.017349	-2.256814	26.601309	650.494	01:22:25.246	2024-01-18
-0.379	0.021	-9.787	-0.048434	0.054447	-0.025609	-0.017337	-2.256797	26.601101	650.508	01:22:25.260	2024-01-18
-0.373	0.011	-9.787	0.012288	0.060820	-0.003680	-0.017791	-2.257396	26.601833	650.522	01:22:25.274	2024-01-18
-0.372	0.012	-9.787	0.008704	0.055336	-0.006117	-0.018246	-2.257995	26.602566	650.536	01:22:25.288	2024-01-18
-0.371	0.013	-9.786	0.005120	0.049853	-0.008554	-0.018701	-2.258593	26.603303	650.550	01:22:25.302	2024-01-18
-0.371	0.013	-9.786	0.001537	0.044369	-0.010991	-0.019156	-2.259192	26.604034	650.564	01:22:25.316	2024-01-18
-0.370	0.014	-9.786	-0.002047	0.038886	-0.013429	-0.019611	-2.259790	26.604772	650.578	01:22:25.330	2024-01-18
-0.376	0.012	-9.791	-0.019117	0.050711	0.011198	-0.019841	-2.260112	26.605194	650.592	01:22:25.344	2024-01-18
-0.373	0.016	-9.792	0.028076	0.060620	-0.014519	-0.019509	-2.259741	26.604833	650.606	01:22:25.358	2024-01-18
-0.372	0.015	-9.782	0.020224	0.047935	0.005597	-0.019171	-2.259906	26.604926	650.620	01:22:25.372	2024-01-18
-0.379	0.016	-9.789	0.017434	0.036979	-0.028538	-0.018961	-2.260089	26.604890	650.634	01:22:25.386	2024-01-18
-0.367	0.008	-9.788	0.012548	0.055648	0.008651	-0.018921	-2.260176	26.604593	650.648	01:22:25.400	2024-01-18
-0.369	0.015	-9.787	0.008022	0.052744	-0.007920	-0.017526	-2.261488	26.602750	650.662	01:22:25.414	2024-01-18
-0.375	0.022	-9.784	0.002590	0.034987	-0.007558	-0.016977	-2.261970	26.601773	650.676	01:22:25.428	2024-01-18
-0.373	0.011	-9.791	-0.002729	0.087289	0.000024	-0.017099	-2.261935	26.601517	650.690	01:22:25.442	2024-01-18
-0.375	0.018	-9.789	-0.027462	0.032932	-0.012221	-0.017446	-2.262548	26.601671	650.704	01:22:25.456	2024-01-18
-0.374	0.019	-9.785	-0.025049	0.022924	0.000631	-0.018163	-2.262673	26.602433	650.718	01:22:25.470	2024-01-18
-0.373	0.020	-9.784	-0.008181	0.033119	-0.002420	-0.019028	-2.262604	26.603419	650.732	01:22:25.484	2024-01-18
-0.373	0.021	-9.784	0.008687	0.043314	-0.005472	-0.019892	-2.262534	26.604413	650.746	01:22:25.498	2024-01-18
-0.372	0.019	-9.784	0.011798	0.055712	-0.002942	-0.020756	-2.262464	26.605404	650.760	01:22:25.512	2024-01-18
-0.366	0.012	-9.788	-0.012970	0.069674	0.005954	-0.021251	-2.262487	26.605928	650.774	01:22:25.526	2024-01-18
-0.382	0.016	-9.786	-0.007666	0.020826	-0.017495	-0.021254	-2.262631	26.605812	650.788	01:22:25.540	2024-01-18
-0.372	0.023	-9.788	-0.013898	0.054117	-0.022810	-0.021670	-2.262621	26.605825	650.802	01:22:25.554	2024-01-18
-0.369	0.015	-9.785	-0.012322	0.050460	0.004350	-0.022026	-2.262625	26.605626	650.816	01:22:25.568	2024-01-18
-0.372	0.016	-9.793	-0.039453	0.034590	-0.030092	-0.022303	-2.262632	26.605381	650.830	01:22:25.582	2024-01-18
-0.373	0.013	-9.793	-0.004220	0.060298	0.006971	-0.022370	-2.262600	26.605779	650.844	01:22:25.596	2024-01-18
-0.377	0.019	-9.785	-0.012878	0.058569	-0.051788	-0.022381	-2.263714	26.604075	650.858	01:22:25.610	2024-01-18
-0.369	0.011	-9.791	-0.008324	0.034071	0.012283	-0.022330	-2.264805	26.602219	650.872	01:22:25.624	2024-01-18
-0.377	0.016	-9.789	0.020130	0.031065	0.005526	-0.022184	-2.264693	26.602098	650.886	01:22:25.638	2024-01-18
-0.375	0.016	-9.785	0.022011	0.045903	0.010899	-0.022037	-2.264580	26.601977	650.900	01:22:25.652	2024-01-18
-0.372	0.017	-9.782	0.023892	0.060741	0.016271	-0.021890	-2.264467	26.601860	650.914	01:22:25.666	2024-01-18
-0.370	0.017	-9.778	0.025773	0.075578	0.021644	-0.021743	-2.264355	26.601739	650.928	01:22:25.680	2024-01-18
-0.370	0.015	-9.780	0.007325	0.054321	0.011118	-0.021596	-2.264242	26.601621	650.942	01:22:25.694	2024-01-18
-0.381	0.019	-9.791	-0.006864	0.041263	0.014606	-0.020625	-2.264616	26.602269	650.956	01:22:25.708	2024-01-18
-0.375	0.016	-9.789	-0.017017	0.036293	-0.019551	-0.019230	-2.265238	26.603290	650.970	01:22:25.722	2024-01-18
-0.372	0.013	-9.790	0.027480	0.067140	-0.026247	-0.019001	-2.265170	26.603016	650.984	01:22:25.736	2024-01-18
-0.367	0.004	-9.793	-0.002181	0.095270	-0.007958	-0.018932	-2.264855	26.602917	650.998	01:22:25.750	2024-01-18
-0.365	0.027	-9.789	0.012802	0.057140	-0.010942	-0.018932	-2.264538	26.602888	651.012	01:22:25.764	2024-01-18
-0.370	0.029	-9.790	-0.027851	0.047005	0.012116	-0.018942	-2.264465	26.602851	651.026	01:22:25.778	2024-01-18
-0.379	0.014	-9.789	0.010350	0.053386	-0.003522	-0.018725	-2.264224	26.602969	651.040	01:22:25.792	2024-01-18
-0.364	0.020	-9.791	0.000226	0.073020	0.008828	-0.019272	-2.264527	26.603457	651.054	01:22:25.806	2024-01-18
-0.372	0.020	-9.790	-0.009591	0.058974	-0.005928	-0.020889	-2.265594	26.604415	651.068	01:22:25.820	2024-01-18
-0.374	0.019	-9.791	0.009049	0.056666	-0.010807	-0.020460	-2.265315	26.604181	651.082	01:22:25.834	2024-01-18
-0.375	0.018	-9.791	0.027689	0.054359	-0.015686	-0.020031	-2.265037	26.603949	651.096	01:22:25.848	2024-01-18
-0.376	0.018	-9.792	0.036514	0.045660	-0.020205	-0.019643	-2.264832	26.603713	651.110	01:22:25.862	2024-01-18
-0.370	0.017	-9.792	0.016379	0.028716	-0.020182	-0.019508	-2.265068	26.603489	651.124	01:22:25.876	2024-01-18
-0.379	0.013	-9.789	0.002232	0.013332	-0.014332	-0.019536	-2.265483	26.603203	651.138	01:22:25.890	2024-01-18
-0.378	0.016	-9.785	-0.004698	0.053620	-0.027862	-0.019797	-2.266575	26.602912	651.152	01:22:25.904	2024-01-18
-0.367	0.013	-9.781	-0.027218	0.047301	0.011431	-0.020479	-2.269181	26.602721	651.166	01:22:25.918	2024-01-18
-0.374	0.020	-9.787	0.018419	0.070918	0.039305	-0.020347	-2.269571	26.603056	651.180	01:22:25.932	2024-01-18
-0.378	0.020	-9.781	0.002502	0.057183	0.016288	-0.020259	-2.269588	26.603346	651.194	01:22:25.946	2024-01-18
-0.373	0.016	-9.787	-0.010861	0.028889	0.004053	-0.020411	-2.269601	26.603471	651.208	01:22:25.960	2024-01-18
-0.372	0.014	-9.787	-0.000737	0.059904	-0.007816	-0.020557	-2.269571	26.603688	651.222	01:22:25.974	2024-01-18
-0.370	0.010	-9.784	0.009631	0.028949	0.004144	-0.020703	-2.269540	26.603904	651.236	01:22:25.988	2024-01-18
-0.372	0.012	-9.785	0.002655	0.039000	-0.003710	-0.020849	-2.269509	26.604125	651.250	01:22:26.002	2024-01-18
-0.373	0.015	-9.785	-0.004320	0.049052	-0.011563	-0.020995	-2.269479	26.604343	651.264	01:22:26.016	2024-01-18
-0.375	0.017	-9.786	-0.011296	0.059104	-0.019417	-0.021141	-2.269449	26.604565	651.278	01:22:26.030	2024-01-18
-0.375	0.016	-9.787	-0.011758	0.066406	-0.008497	-0.021337	-2.269404	26.604770	651.292	01:22:26.044	2024-01-18
-0.374	0.015	-9.786	0.006688	0.073393	0.021835	-0.021659	-2.269324	26.604955	651.306	01:22:26.058	2024-01-18
-0.369	0.020	-9.784	0.002778	0.030896	-0.033368	-0.021499	-2.269245	26.604955	651.320	01:22:26.072	2024-01-18
-0.367	0.016	-9.789	-0.005590	0.028693	0.038038	-0.021376	-2.269345	26.605101	651.334	01:22:26.086	2024-01-18
-0.371	0.017	-9.787	0.020378	0.032961	0.002647	-0.021410	-2.269681	26.605484	651.348	01:22:26.100	2024-01-18
-0.370	0.018	-9.790	0.006003	0.045779	-0.006168	-0.020137	-2.268613	26.605578	651.362	01:22:26.114	2024-01-18
-0.376	0.019	-9.792	0.038664	0.060669	0.004071	-0.019558	-2.267860	26.605511	651.376	01:22:26.128	2024-01-18
-0.382	0.018	-9.789	-0.016977	0.049102	0.000176	-0.019543	-2.267420	26.605332	651.390	01:22:26.142	2024-01-18
-0.371	0.015	-9.790	0.000507	0.029499	-0.031668	-0.019789	-2.267441	26.605127	651.404	01:22:26.156	2024-01-18
-0.366	0.013	-9.791	-0.004130	0.009818	-0.032232	-0.020075	-2.267316	26.604772	651.418	01:22:26.170	2024-01-18
-0.367	0.014	-9.790	0.001172	0.018789	-0.024947	-0.020376	-2.267135	26.604342	651.432	01:22:26.184	2024-01-18
-0.369	0.014	-9.789	0.006475	0.027760	-0.017663	-0.020678	-2.266954	26.603921	651.446	01:22:26.198	2024-01-18
-0.370	0.015	-9.789	0.011778	0.036731	-0.010378	-0.020979	-2.266772	26.603495	651.460	01:22:26.212	2024-01-18
-0.371	0.015	-9.788	0.017080	0.045701	-0.003093	-0.021280	-2.266591	26.603073	651.474	01:22:26.226	2024-01-18
-0.373	0.015	-9.787	0.022383	0.054672	0.004191	-0.021581	-2.266409	26.602648	651.488	01:22:26.240	2024-01-18
-0.377	0.015	-9.791	-0.003061	0.082979	0.001242	-0.021684	-2.265957	26.602552	651.502	01:22:26.254	2024-01-18
-0.373	0.012	-9.788	0.022062	0.051289	0.004751	-0.021607	-2.265748	26.602596	651.516	01:22:26.268	2024-01-18
-0.376	0.017	-9.791	0.013248	0.045248	0.000351	-0.021428	-2.265748	26.602690	651.530	01:22:26.282	2024-01-18
-0.374	0.013	-9.787	-0.006891	0.036864	-0.002303	-0.021445	-2.265908	26.602409	651.544	01:22:26.296	2024-01-18
-0.380	0.015	-9.784	0.013501	0.014319	0.024499	-0.021669	-2.266539	26.600494	651.558	01:22:26.310	2024-01-18
-0.375	0.018	-9.783	0.026284	0.023682	0.038981	-0.021815	-2.267165	26.598550	651.572	01:22:26.324	2024-01-18
-0.374	0.019	-9.790	-0.016309	0.021071	-0.003047	-0.021556	-2.267311	26.598181	651.586	01:22:26.338	2024-01-18
-0.371	0.022	-9.788	0.024019	0.058953	-0.020382	-0.021371	-2.266986	26.598310	651.600	01:22:26.352	2024-01-18
-0.369	0.016	-9.788	0.045707	0.094511	-0.003710	-0.021284	-2.266635	26.598377	651.614	01:22:26.366	2024-01-18
-0.370	0.013	-9.790	0.017798	0.090765	-0.006466	-0.021312	-2.266352	26.598268	651.628	01:22:26.380	2024-01-18
-0.370	0.012	-9.785	-0.017345	0.067627	0.002959	-0.021340	-2.266069	26.598159	651.642	01:22:26.394	2024-01-18
-0.373	0.008	-9.788	-0.002473	0.076059	-0.012443	-0.022101	-2.264446	26.595698	651.656	01:22:26.408	2024-01-18
-0.376	0.020	-9.789	0.004437	0.045621	-0.023720	-0.023164	-2.262204	26.592052	651.670	01:22:26.422	2024-01-18
-0.374	0.013	-9.792	0.002672	0.035993	-0.039767	-0.022752	-2.262272	26.591791	651.684	01:22:26.436	2024-01-18
-0.378	0.016	-9.792	0.019189	0.032215	0.011827	-0.022902	-2.262417	26.591588	651.698	01:22:26.450	2024-01-18
-0.371	0.017	-9.784	-0.006446	0.048793	-0.009884	-0.023037	-2.262440	26.591347	651.712	01:22:26.464	2024-01-18
-0.377	0.013	-9.783	0.022022	0.076994	-0.049077	-0.022576	-2.262077	26.590960	651.726	01:22:26.478	2024-01-18
-0.369	0.022	-9.782	-0.006795	0.117734	0.014864	-0.022734	-2.261417	26.590871	651.740	01:22:26.492	2024-01-18
-0.366	0.026	-9.783	-0.024565	0.064761	0.024610	-0.022870	-2.261188	26.591202	651.754	01:22:26.506	2024-01-18
-0.365	0.025	-9.783	-0.025190	0.069304	0.022403	-0.022840	-2.261599	26.591998	651.768	01:22:26.520	2024-01-18
-0.365	0.023	-9.783	-0.025815	0.073848	0.020197	-0.022810	-2.262011	26.592800	651.782	01:22:26.534	2024-01-18
-0.365	0.022	-9.783	-0.026440	0.078391	0.017991	-0.022780	-2.262422	26.593598	651.796	01:22:26.548	2024-01-18
-0.365	0.020	-9.783	-0.027065	0.082934	0.015784	-0.022750	-2.262834	26.594399	651.810	01:22:26.562	2024-01-18
-0.365	0.019	-9.783	-0.027690	0.087477	0.013578	-0.022720	-2.263245	26.595189	651.824	01:22:26.576	2024-01-18
-0.365	0.018	-9.783	-0.028315	0.092021	0.011371	-0.022690	-2.263657	26.595988	651.838	01:22:26.590	2024-01-18
-0.366	0.016	-9.783	-0.012710	0.078559	0.002457	-0.022420	-2.264399	26.596386	651.852	01:22:26.604	2024-01-18
-0.373	0.015	-9.787	0.021865	0.029046	0.000245	-0.021552	-2.265966	26.595783	651.866	01:22:26.618	2024-01-18
-0.373	0.012	-9.792	-0.004166	0.060097	-0.007918	-0.021710	-2.265847	26.595705	651.880	01:22:26.632	2024-01-18
-0.373	0.017	-9.792	-0.042950	0.054187	0.015302	-0.021879	-2.265661	26.595640	651.894	01:22:26.646	2024-01-18
-0.383	0.008	-9.783	0.024905	0.086467	-0.033077	-0.021836	-2.265761	26.595495	651.908	01:22:26.660	2024-01-18
-0.366	0.014	-9.787	0.008994	0.043682	0.016053	-0.021770	-2.265783	26.595348	651.922	01:22:26.674	2024-01-18
-0.365	0.025	-9.789	-0.001547	0.029978	-0.045768	-0.021676	-2.266032	26.595070	651.936	01:22:26.688	2024-01-18
-0.372	0.014	-9.789	-0.001502	0.037969	-0.042567	-0.021729	-2.266684	26.594837	651.950	01:22:26.702	2024-01-18
-0.363	0.014	-9.789	-0.018138	0.067460	-0.003361	-0.022792	-2.268739	26.595510	651.964	01:22:26.716	2024-01-18
-0.371	0.006	-9.788	0.020516	0.015720	0.015121	-0.022966	-2.269474	26.595783	651.978	01:22:26.730	2024-01-18
-0.369	0.008	-9.786	0.000363	0.025210	0.002046	-0.022784	-2.269680	26.595891	651.992	01:22:26.744	2024-01-18
-0.367	0.010	-9.784	-0.019791	0.034700	-0.011029	-0.022603	-2.269887	26.595988	652.006	01:22:26.758	2024-01-18
-0.372	0.013	-9.792	0.023697	0.051060	-0.023471	-0.022483	-2.269908	26.595896	652.020	01:22:26.772	2024-01-18
-0.383	0.014	-9.785	-0.005896	0.068848	-0.003941	-0.022527	-2.269823	26.595891	652.034	01:22:26.786	2024-01-18
-0.386	0.022	-9.788	-0.008111	0.053079	-0.014530	-0.022775	-2.269638	26.596046	652.048	01:22:26.800	2024-01-18
-0.373	0.017	-9.792	-0.000448	0.043536	0.021579	-0.022927	-2.269434	26.599120	652.062	01:22:26.814	2024-01-18
-0.368	0.013	-9.788	0.015462	0.059639	-0.030010	-0.023246	-2.269195	26.600513	652.076	01:22:26.828	2024-01-18
-0.374	0.012	-9.779	-0.023903	0.055155	0.023831	-0.023504	-2.269036	26.600640	652.090	01:22:26.842	2024-01-18
-0.379	0.015	-9.789	0.056769	0.010439	-0.002103	-0.022635	-2.269501	26.600759	652.104	01:22:26.856	2024-01-18
-0.379	0.016	-9.789	0.045994	0.005501	-0.015747	-0.022320	-2.269823	26.600933	652.118	01:22:26.870	2024-01-18
-0.378	0.017	-9.788	0.035334	0.017294	-0.013751	-0.022225	-2.270086	26.601119	652.132	01:22:26.884	2024-01-18
-0.378	0.018	-9.786	0.024674	0.029087	-0.011755	-0.022131	-2.270350	26.601321	652.146	01:22:26.898	2024-01-18
-0.377	0.019	-9.785	0.014014	0.040880	-0.009760	-0.022037	-2.270613	26.601512	652.160	01:22:26.912	2024-01-18
-0.377	0.020	-9.784	0.003354	0.052673	-0.007764	-0.021943	-2.270877	26.601709	652.174	01:22:26.926	2024-01-18
-0.376	0.021	-9.782	-0.007306	0.064466	-0.005768	-0.021849	-2.271141	26.601900	652.188	01:22:26.940	2024-01-18
-0.377	0.022	-9.783	-0.003145	0.076459	-0.017704	-0.021754	-2.271404	26.602096	652.202	01:22:26.954	2024-01-18
-0.371	0.023	-9.788	-0.016356	0.054622	0.002438	-0.021831	-2.271262	26.602380	652.216	01:22:26.968	2024-01-18
-0.376	0.014	-9.783	-0.012176	0.091003	-0.006235	-0.022020	-2.270858	26.602673	652.230	01:22:26.982	2024-01-18
-0.377	0.014	-9.785	-0.004040	0.075525	-0.022634	-0.022110	-2.270721	26.602614	652.244	01:22:26.996	2024-01-18
-0.380	0.013	-9.787	-0.006299	0.011815	0.024563	-0.022987	-2.270070	26.600583	652.258	01:22:27.010	2024-01-18
-0.374	0.019	-9.788	0.002377	0.092432	-0.049158	-0.023770	-2.269298	26.598491	652.272	01:22:27.024	2024-01-18
-0.381	0.012	-9.790	0.023197	0.067752	-0.012653	-0.023529	-2.268743	26.598227	652.286	01:22:27.038	2024-01-18
-0.370	0.019	-9.783	0.011715	0.072531	-0.004807	-0.023706	-2.268397	26.598235	652.300	01:22:27.052	2024-01-18
-0.375	0.012	-9.789	0.003437	0.075305	-0.026172	-0.023852	-2.268270	26.598200	652.314	01:22:27.066	2024-01-18
-0.375	0.013	-9.792	-0.009721	-0.013133	0.012397	-0.023864	-2.268390	26.598063	652.328	01:22:27.080	2024-01-18
-0.373	0.014	-9.794	-0.008414	0.006628	0.007188	-0.023925	-2.269922	26.599757	652.342	01:22:27.094	2024-01-18
-0.370	0.015	-9.797	-0.007107	0.026388	0.001980	-0.023986	-2.271453	26.601440	652.356	01:22:27.108	2024-01-18
-0.367	0.012	-9.790	-0.024478	0.035192	0.025413	-0.024044	-2.272818	26.602865	652.370	01:22:27.122	2024-01-18
-0.379	0.018	-9.795	-0.000574	0.054278	-0.025912	-0.024083	-2.273188	26.602709	652.384	01:22:27.136	2024-01-18
-0.384	0.006	-9.785	-0.018848	0.058605	-0.043617	-0.024058	-2.273033	26.602286	652.398	01:22:27.150	2024-01-18
-0.376	0.013	-9.787	0.003119	0.072212	-0.022096	-0.024065	-2.272819	26.601816	652.412	01:22:27.164	2024-01-18
-0.372	0.019	-9.788	-0.013781	0.032682	-0.061873	-0.024217	-2.272982	26.601492	652.426	01:22:27.178	2024-01-18
-0.377	0.014	-9.786	-0.002696	0.061915	0.029876	-0.024649	-2.273136	26.601538	652.440	01:22:27.192	2024-01-18
-0.379	0.014	-9.788	-0.013525	0.028862	-0.005675	-0.024650	-2.273330	26.602417	652.454	01:22:27.206	2024-01-18
-0.377	0.022	-9.785	0.012174	0.056656	0.034056	-0.024016	-2.273580	26.604333	652.468	01:22:27.220	2024-01-18
-0.377	0.020	-9.785	0.013725	0.048150	0.022433	-0.024009	-2.273751	26.604280	652.482	01:22:27.234	2024-01-18
-0.376	0.019	-9.786	0.015276	0.039644	0.010809	-0.024001	-2.273922	26.604231	652.496	01:22:27.248	2024-01-18
-0.376	0.017	-9.786	0.016826	0.031138	-0.000814	-0.023993	-2.274093	26.604183	652.510	01:22:27.262	2024-01-18
-0.375	0.016	-9.786	0.018377	0.022632	-0.012438	-0.023986	-2.274263	26.604137	652.524	01:22:27.276	2024-01-18
-0.374	0.015	-9.787	0.019928	0.014126	-0.024062	-0.023978	-2.274434	26.604084	652.538	01:22:27.290	2024-01-18
-0.374	0.013	-9.787	0.021478	0.005620	-0.035685	-0.023971	-2.274605	26.604032	652.552	01:22:27.304	2024-01-18
-0.367	0.007	-9.791	-0.013992	0.033659	-0.003141	-0.023963	-2.274776	26.603988	652.566	01:22:27.318	2024-01-18
-0.375	0.016	-9.796	-0.036262	0.101761	0.012102	-0.024554	-2.274686	26.604227	652.580	01:22:27.332	2024-01-18
-0.363	0.017	-9.789	-0.014381	0.066358	-0.005833	-0.024832	-2.274703	26.604316	652.594	01:22:27.346	2024-01-18
-0.365	0.014	-9.791	-0.003950	0.015014	0.006752	-0.024562	-2.274919	26.604123	652.608	01:22:27.360	2024-01-18
-0.377	0.014	-9.790	0.016576	0.062499	-0.025836	-0.024403	-2.274802	26.604050	652.622	01:22:27.374	2024-01-18
-0.376	0.015	-9.792	0.011447	0.040058	0.020629	-0.024250	-2.274515	26.603951	652.636	01:22:27.388	2024-01-18
-0.376	0.023	-9.794	0.021777	0.098961	-0.035498	-0.023971	-2.273823	26.604024	652.650	01:22:27.402	2024-01-18
-0.369	0.015	-9.791	-0.038636	0.095405	-0.031870	-0.022913	-2.271480	26.605200	652.664	01:22:27.416	2024-01-18
-0.375	0.017	-9.790	-0.007721	0.037543	-0.025496	-0.022543	-2.270731	26.605294	652.678	01:22:27.430	2024-01-18
-0.369	0.012	-9.792	0.019632	0.034469	-0.022275	-0.022529	-2.270569	26.605182	652.692	01:22:27.444	2024-01-18
-0.376	0.019	-9.794	0.005022	0.042307	-0.004863	-0.022718	-2.270285	26.605619	652.706	01:22:27.458	2024-01-18
-0.381	0.014	-9.789	-0.023648	0.060107	-0.006656	-0.022906	-2.270001	26.606054	652.720	01:22:27.472	2024-01-18
-0.380	0.011	-9.790	-0.026441	0.085938	0.000316	-0.023106	-2.269890	26.606023	652.734	01:22:27.486	2024-01-18
-0.385	0.013	-9.781	0.003940	0.022785	-0.025739	-0.023322	-2.270011	26.605361	652.748	01:22:27.500	2024-01-18
-0.374	0.010	-9.791	-0.009279	0.045445	-0.001865	-0.023814	-2.272015	26.610847	652.762	01:22:27.514	2024-01-18
-0.377	0.014	-9.790	-0.011760	0.098141	-0.010222	-0.024208	-2.273146	26.613270	652.776	01:22:27.528	2024-01-18
-0.372	0.013	-9.790	-0.008251	0.027798	0.001711	-0.024470	-2.273411	26.613470	652.790	01:22:27.542	2024-01-18
-0.368	0.012	-9.796	-0.000408	0.085611	0.022026	-0.024379	-2.272408	26.614018	652.804	01:22:27.556	2024-01-18
-0.375	0.016	-9.788	0.034098	0.012363	0.011985	-0.024410	-2.272466	26.614192	652.818	01:22:27.570	2024-01-18
-0.374	0.011	-9.786	-0.041248	0.075626	0.019841	-0.024417	-2.272963	26.614361	652.832	01:22:27.584	2024-01-18
-0.374	0.011	-9.787	-0.031290	0.073439	0.018910	-0.024242	-2.273498	26.614887	652.846	01:22:27.598	2024-01-18
-0.375	0.010	-9.788	-0.021332	0.071251	0.017980	-0.024066	-2.274034	26.615413	652.860	01:22:27.612	2024-01-18
-0.375	0.009	-9.789	-0.011373	0.069063	0.017050	-0.023890	-2.274569	26.615941	652.874	01:22:27.626	2024-01-18
-0.375	0.008	-9.790	-0.001415	0.066876	0.016120	-0.023714	-2.275105	26.616462	652.888	01:22:27.640	2024-01-18
-0.376	0.007	-9.791	0.008543	0.064688	0.015189	-0.023539	-2.275640	26.616984	652.902	01:22:27.654	2024-01-18
-0.373	0.003	-9.787	-0.009439	0.044751	0.003956	-0.023503	-2.275766	26.617167	652.916	01:22:27.668	2024-01-18
-0.370	0.016	-9.788	0.004683	0.079130	-0.002885	-0.023563	-2.275650	26.617174	652.930	01:22:27.682	2024-01-18
-0.370	0.020	-9.783	-0.003226	0.049529	0.018104	-0.023572	-2.275926	26.617633	652.944	01:22:27.696	2024-01-18
-0.379	0.012	-9.786	-0.008282	0.006203	0.013832	-0.022087	-2.275788	26.616148	652.958	01:22:27.710	2024-01-18
-0.373	0.015	-9.786	-0.011346	0.011570	-0.015255	-0.020524	-2.275620	26.614542	652.972	01:22:27.724	2024-01-18
-0.372	0.007	-9.790	-0.008417	0.025815	-0.007480	-0.020258	-2.275787	26.614592	652.986	01:22:27.738	2024-01-18
-0.376	0.011	-9.782	0.016192	0.052158	0.020992	-0.020210	-2.275718	26.614520	653.000	01:22:27.752	2024-01-18
-0.370	0.011	-9.790	0.008701	0.053936	-0.015247	-0.019824	-2.275820	26.614399	653.014	01:22:27.766	2024-01-18
-0.372	0.012	-9.786	0.083209	0.025168	-0.021292	-0.018941	-2.276203	26.614238	653.028	01:22:27.780	2024-01-18
-0.368	0.011	-9.786	0.011772	0.047042	0.007057	-0.018479	-2.275555	26.613468	653.042	01:22:27.794	2024-01-18
-0.373	0.016	-9.787	0.009866	0.028759	-0.002072	-0.018016	-2.274908	26.612688	653.056	01:22:27.808	2024-01-18
-0.380	0.016	-9.784	0.014384	0.035882	-0.016354	-0.017609	-2.274337	26.612077	653.070	01:22:27.822	2024-01-18
-0.376	0.011	-9.788	-0.003117	0.053633	0.013255	-0.017533	-2.274221	26.612382	653.084	01:22:27.836	2024-01-18
-0.380	0.008	-9.794	0.024912	0.027633	-0.010858	-0.017463	-2.274278	26.612698	653.098	01:22:27.850	2024-01-18
-0.366	0.016	-9.787	-0.013050	0.038114	0.032170	-0.017589	-2.274364	26.612966	653.112	01:22:27.864	2024-01-18
-0.367	0.020	-9.786	-0.030611	0.058938	0.014755	-0.018202	-2.274343	26.613156	653.126	01:22:27.878	2024-01-18
-0.368	0.025	-9.791	-0.026644	0.084313	-0.013480	-0.017901	-2.273958	26.613211	653.140	01:22:27.892	2024-01-18
-0.374	0.011	-9.791	0.013135	0.068141	0.024716	-0.018741	-2.273630	26.613796	653.154	01:22:27.906	2024-01-18
-0.371	0.011	-9.778	0.009070	0.064760	-0.008423	-0.021303	-2.273463	26.615126	653.168	01:22:27.920	2024-01-18
-0.369	0.016	-9.784	-0.005479	0.017858	-0.042380	-0.021512	-2.273863	26.614729	653.182	01:22:27.934	2024-01-18
-0.370	0.016	-9.783	-0.014772	0.024966	-0.044436	-0.021720	-2.274264	26.614334	653.196	01:22:27.948	2024-01-18
-0.370	0.015	-9.781	-0.024065	0.032075	-0.046491	-0.021929	-2.274665	26.613936	653.210	01:22:27.962	2024-01-18
-0.371	0.015	-9.780	-0.033358	0.039184	-0.048547	-0.022137	-2.275065	26.613542	653.224	01:22:27.976	2024-01-18
-0.372	0.014	-9.779	-0.042651	0.046293	-0.050603	-0.022346	-2.275466	26.613146	653.238	01:22:27.990	2024-01-18
-0.373	0.014	-9.777	-0.051944	0.053401	-0.052659	-0.022554	-2.275867	26.612748	653.252	01:22:28.004	2024-01-18
-0.373	0.013	-9.776	-0.061237	0.060510	-0.054714	-0.022762	-2.276267	26.612353	653.266	01:22:28.018	2024-01-18
-0.371	0.013	-9.789	0.018000	0.036154	0.017144	-0.022445	-2.276259	26.612218	653.280	01:22:28.032	2024-01-18
-0.376	0.008	-9.782	0.037476	0.045053	-0.028290	-0.022148	-2.276181	26.612096	653.294	01:22:28.046	2024-01-18
-0.375	0.021	-9.786	0.000086	0.072783	0.002447	-0.021992	-2.276101	26.611928	653.308	01:22:28.060	2024-01-18
-0.370	0.010	-9.789	0.009279	0.050733	0.038013	-0.021955	-2.276181	26.612341	653.322	01:22:28.074	2024-01-18
-0.372	0.014	-9.787	-0.035009	0.041445	-0.010748	-0.022141	-2.276165	26.612336	653.336	01:22:28.088	2024-01-18
-0.373	0.017	-9.789	-0.001040	0.050334	-0.031756	-0.022295	-2.276178	26.612577	653.350	01:22:28.102	2024-01-18
-0.368	0.021	-9.785	0.005129	0.039873	-0.026833	-0.021257	-2.276807	26.616163	653.364	01:22:28.116	2024-01-18
-0.368	0.010	-9.795	-0.023891	0.033080	0.024321	-0.021164	-2.277141	26.617428	653.378	01:22:28.130	2024-01-18
-0.374	0.018	-9.788	-0.019015	0.048849	-0.009749	-0.021325	-2.277231	26.617604	653.392	01:22:28.144	2024-01-18
-0.379	0.018	-9.794	0.013879	0.041609	-0.019458	-0.021172	-2.277012	26.617339	653.406	01:22:28.158	2024-01-18
-0.374	0.014	-9.784	0.020830	0.058974	-0.031020	-0.021020	-2.276792	26.617073	653.420	01:22:28.172	2024-01-18
-0.372	0.016	-9.789	0.005292	0.057771	-0.049557	-0.020969	-2.276591	26.616699	653.434	01:22:28.186	2024-01-18
-0.373	0.020	-9.782	-0.007283	0.056059	0.016781	-0.021053	-2.276418	26.616192	653.448	01:22:28.200	2024-01-18
-0.374	0.020	-9.795	0.018501	0.061254	-0.028722	-0.019987	-2.276032	26.617869	653.462	01:22:28.214	2024-01-18
-0.370	0.013	-9.790	-0.026293	0.060181	0.003286	-0.019744	-2.275881	26.618514	653.476	01:22:28.228	2024-01-18
-0.374	0.016	-9.787	-0.019857	0.061805	0.003905	-0.020036	-2.275884	26.618451	653.490	01:22:28.242	2024-01-18
-0.374	0.015	-9.793	-0.001255	0.049430	0.010052	-0.019842	-2.275752	26.618808	653.504	01:22:28.256	2024-01-18
-0.373	0.018	-9.780	-0.025731	-0.001157	0.009678	-0.020192	-2.275792	26.618873	653.518	01:22:28.270	2024-01-18
-0.366	0.012	-9.792	-0.005881	0.072607	-0.031307	-0.020697	-2.276067	26.619078	653.532	01:22:28.284	2024-01-18
-0.367	0.012	-9.792	-0.011280	0.070575	-0.024060	-0.021041	-2.276758	26.619909	653.546	01:22:28.298	2024-01-18
-0.369	0.012	-9.792	-0.016679	0.068542	-0.016812	-0.021384	-2.277447	26.620743	653.560	01:22:28.312	2024-01-18
-0.371	0.012	-9.792	-0.022079	0.066509	-0.009564	-0.021728	-2.278136	26.621578	653.574	01:22:28.326	2024-01-18
-0.373	0.012	-9.792	-0.027478	0.064477	-0.002317	-0.022072	-2.278826	26.622418	653.588	01:22:28.340	2024-01-18
-0.375	0.012	-9.792	-0.032877	0.062444	0.004931	-0.022416	-2.279515	26.623248	653.602	01:22:28.354	2024-01-18
-0.377	0.012	-9.792	-0.038276	0.060411	0.012179	-0.022760	-2.280205	26.624081	653.616	01:22:28.368	2024-01-18
-0.375	0.020	-9.784	-0.015338	0.009801	0.017348	-0.023029	-2.280819	26.624827	653.630	01:22:28.382	2024-01-18
-0.374	0.019	-9.787	0.014818	0.048918	0.000714	-0.022846	-2.280977	26.625059	653.644	01:22:28.396	2024-01-18
-0.377	0.009	-9.798	0.020340	-0.021179	0.055123	-0.022145	-2.280445	26.626709	653.658	01:22:28.410	2024-01-18
-0.380	0.012	-9.789	-0.033363	0.073699	0.015386	-0.021493	-2.279706	26.628421	653.672	01:22:28.424	2024-01-18
-0.368	0.013	-9.791	-0.016131	0.083186	0.026835	-0.021486	-2.279133	26.628860	653.686	01:22:28.438	2024-01-18
-0.375	0.018	-9.789	-0.006049	0.049769	-0.006168	-0.021983	-2.279234	26.628980	653.700	01:22:28.452	2024-01-18
-0.384	0.016	-9.792	-0.023737	0.055598	-0.003132	-0.022124	-2.279381	26.628915	653.714	01:22:28.466	2024-01-18
-0.379	0.007	-9.795	0.009598	0.051660	-0.036208	-0.021676	-2.279439	26.628650	653.728	01:22:28.480	2024-01-18
-0.371	0.011	-9.790	0.010889	0.064130	0.037502	-0.021658	-2.279137	26.629268	653.742	01:22:28.494	2024-01-18
-0.370	0.012	-9.792	0.015452	0.043508	0.013861	-0.021597	-2.278806	26.628343	653.756	01:22:28.508	2024-01-18
