Accelerometer X	Accelerometer Y	Accelerometer Z	Gyroscope X	Gyroscope Y	Gyroscope Z	Roll	Pitch	Yaw	Time Stamp	    UTC Time	UTC Date
(m.s^-2)	(m.s^-2)	(m.s^-2)	(°.s^-1)	(°.s^-1)	(°.s^-1)	(°)	(°)	(°)	(s)	(HH:MM:SS.SS	(YYYY-MM-DD)
-0.819	0.406	-9.723	-0.264284	-0.312404	0.388157	-2.333973	-5.433821	6.084092	355.965	00:05:55.750	2024-01-18
-0.808	0.416	-9.741	-0.216131	-0.761905	0.238541	-2.337310	-5.444297	6.087581	355.979	00:05:55.764	2024-01-18
-0.849	0.411	-9.754	-0.160471	-1.056915	-0.053315	-2.339518	-5.460049	6.087404	355.993	00:05:55.778	2024-01-18
-0.910	0.401	-9.750	-0.133864	-1.082212	-0.352165	-2.340871	-5.475040	6.083879	356.007	00:05:55.792	2024-01-18
-0.973	0.414	-9.756	-0.121338	-0.828735	-0.287696	-2.342604	-5.486634	6.081428	356.021	00:05:55.806	2024-01-18
-1.023	0.405	-9.745	-0.195511	-0.403339	0.051128	-2.345034	-5.493868	6.081149	356.035	00:05:55.820	2024-01-18
-0.994	0.436	-9.744	-0.121206	-0.043017	0.103081	-2.343738	-5.489514	6.082102	356.049	00:05:55.834	2024-01-18
-0.941	0.462	-9.745	0.041242	0.171734	0.008360	-2.342442	-5.485161	6.083057	356.063	00:05:55.848	2024-01-18
-0.889	0.487	-9.747	0.203690	0.386486	-0.086362	-2.341145	-5.480808	6.084008	356.077	00:05:55.862	2024-01-18
-0.865	0.424	-9.773	0.325999	0.502196	-0.181328	-2.339848	-5.476455	6.084960	356.091	00:05:55.876	2024-01-18
-0.838	0.389	-9.675	0.076893	0.360684	-0.363651	-2.337491	-5.473396	6.082635	356.105	00:05:55.890	2024-01-18
-0.891	0.393	-9.719	0.145438	0.186978	-0.091062	-2.335810	-5.471438	6.081235	356.119	00:05:55.904	2024-01-18
-0.917	0.364	-9.758	-0.037396	0.091644	0.284221	-2.336875	-5.470937	6.085421	356.133	00:05:55.918	2024-01-18
-0.881	0.372	-9.762	-0.020878	-0.010109	0.091237	-2.336576	-5.472085	6.085224	356.147	00:05:55.932	2024-01-18
-0.873	0.375	-9.777	-0.034066	-0.046543	-0.201657	-2.336424	-5.473459	6.084053	356.161	00:05:55.946	2024-01-18
-0.881	0.432	-9.727	0.033502	-0.050428	-0.077728	-2.336773	-5.474768	6.082558	356.175	00:05:55.960	2024-01-18
-0.914	0.389	-9.738	-0.091794	0.064831	0.411007	-2.339840	-5.474613	6.089947	356.189	00:05:55.974	2024-01-18
-0.922	0.375	-9.734	-0.242972	0.045966	0.547021	-2.343827	-5.479891	6.094485	356.203	00:05:55.988	2024-01-18
-0.942	0.383	-9.735	-0.258984	-0.034284	0.453677	-2.348503	-5.489245	6.096881	356.217	00:05:56.002	2024-01-18
-0.962	0.391	-9.735	-0.274995	-0.114533	0.360332	-2.353180	-5.498597	6.099280	356.231	00:05:56.016	2024-01-18
-0.982	0.400	-9.735	-0.291006	-0.194782	0.266988	-2.357857	-5.507950	6.101679	356.245	00:05:56.030	2024-01-18
-1.003	0.408	-9.736	-0.307017	-0.275032	0.173644	-2.362535	-5.517302	6.104079	356.259	00:05:56.044	2024-01-18
-1.023	0.416	-9.736	-0.323028	-0.355281	0.080299	-2.367213	-5.526655	6.106479	356.273	00:05:56.058	2024-01-18
-0.990	0.429	-9.730	-0.241801	-0.125813	0.267957	-2.370432	-5.529078	6.111164	356.287	00:05:56.072	2024-01-18
-0.938	0.423	-9.738	-0.103592	-0.010895	0.431300	-2.372544	-5.529921	6.116719	356.301	00:05:56.086	2024-01-18
-0.917	0.401	-9.735	-0.003983	0.029392	0.411531	-2.373501	-5.530197	6.122927	356.315	00:05:56.100	2024-01-18
-0.884	0.418	-9.753	-0.120461	-0.031978	0.289880	-2.375464	-5.531400	6.126735	356.329	00:05:56.114	2024-01-18
-0.885	0.409	-9.753	-0.135233	-0.065061	0.209712	-2.377868	-5.533271	6.129422	356.343	00:05:56.128	2024-01-18
-0.872	0.424	-9.739	-0.184267	-0.175185	0.079672	-2.380479	-5.536252	6.130974	356.357	00:05:56.142	2024-01-18
-0.878	0.428	-9.739	-0.154023	-0.415629	-0.046605	-2.382345	-5.542898	6.130773	356.371	00:05:56.156	2024-01-18
-0.902	0.414	-9.743	-0.094346	-0.504663	0.060346	-2.383997	-5.550538	6.130970	356.385	00:05:56.170	2024-01-18
-0.933	0.394	-9.736	-0.143939	-0.444697	-0.065413	-2.385666	-5.557532	6.131074	356.399	00:05:56.184	2024-01-18
-0.950	0.392	-9.740	-0.145069	-0.316200	-0.052231	-2.387588	-5.561921	6.130545	356.413	00:05:56.198	2024-01-18
-0.961	0.408	-9.755	-0.094842	-0.190456	0.053370	-2.389510	-5.566308	6.130019	356.427	00:05:56.212	2024-01-18
-0.960	0.420	-9.752	-0.030128	-0.046576	0.209459	-2.390673	-5.568611	6.131419	356.441	00:05:56.226	2024-01-18
-0.932	0.404	-9.735	0.050441	0.099051	0.258991	-2.390822	-5.568129	6.135388	356.455	00:05:56.240	2024-01-18
-0.901	0.412	-9.738	-0.142622	0.117249	0.205224	-2.392854	-5.567253	6.137798	356.469	00:05:56.254	2024-01-18
-0.873	0.417	-9.729	-0.097732	-0.041899	0.104203	-2.394664	-5.568724	6.138723	356.483	00:05:56.268	2024-01-18
-0.891	0.395	-9.755	-0.121886	-0.240238	-0.087517	-2.396410	-5.572224	6.138488	356.497	00:05:56.282	2024-01-18
-0.905	0.408	-9.737	-0.176381	-0.294470	-0.068256	-2.398779	-5.577322	6.137967	356.511	00:05:56.296	2024-01-18
-0.925	0.409	-9.751	-0.186784	-0.311411	-0.007741	-2.401626	-5.582123	6.138528	356.525	00:05:56.310	2024-01-18
-0.929	0.408	-9.747	-0.229499	-0.261182	0.092261	-2.404589	-5.586581	6.139741	356.539	00:05:56.324	2024-01-18
-0.921	0.408	-9.744	-0.247082	-0.248799	0.136634	-2.407368	-5.590481	6.141510	356.553	00:05:56.338	2024-01-18
-0.924	0.411	-9.742	-0.229679	-0.216720	0.168144	-2.410147	-5.594380	6.143279	356.567	00:05:56.352	2024-01-18
-0.929	0.415	-9.742	-0.194571	-0.184418	0.191332	-2.412926	-5.598279	6.145049	356.581	00:05:56.366	2024-01-18
-0.934	0.418	-9.742	-0.159462	-0.152115	0.214519	-2.415706	-5.602179	6.146819	356.595	00:05:56.380	2024-01-18
-0.940	0.422	-9.741	-0.124354	-0.119813	0.237707	-2.418485	-5.606078	6.148588	356.609	00:05:56.394	2024-01-18
-0.945	0.425	-9.741	-0.089245	-0.087511	0.260894	-2.421265	-5.609978	6.150358	356.623	00:05:56.408	2024-01-18
-0.926	0.401	-9.746	-0.147932	-0.072753	0.273833	-2.424170	-5.613607	6.152153	356.637	00:05:56.422	2024-01-18
-0.915	0.398	-9.743	-0.246416	-0.084720	0.148766	-2.427826	-5.615616	6.154100	356.651	00:05:56.436	2024-01-18
-0.912	0.420	-9.735	-0.250184	-0.159330	0.032690	-2.431808	-5.618350	6.155374	356.665	00:05:56.450	2024-01-18
-0.916	0.429	-9.744	-0.328301	-0.179485	0.088717	-2.436260	-5.621720	6.156552	356.679	00:05:56.464	2024-01-18
-0.910	0.422	-9.737	-0.381719	-0.227332	0.069058	-2.441566	-5.625962	6.158152	356.693	00:05:56.478	2024-01-18
-0.858	0.442	-9.730	-0.255541	-0.495986	-0.047156	-2.443845	-5.635661	6.156622	356.707	00:05:56.492	2024-01-18
-0.825	0.422	-9.746	-0.128836	-0.917820	-0.372059	-2.446387	-5.648601	6.152363	356.721	00:05:56.506	2024-01-18
-0.910	0.403	-9.739	-0.331896	-1.103032	-0.585880	-2.449953	-5.664648	6.145169	356.735	00:05:56.520	2024-01-18
-0.982	0.453	-9.742	-0.230151	-1.029890	-0.435093	-2.451988	-5.679028	6.141407	356.749	00:05:56.534	2024-01-18
-0.996	0.461	-9.742	-0.092512	-0.796394	-0.184128	-2.452170	-5.689489	6.141399	356.763	00:05:56.548	2024-01-18
-1.001	0.436	-9.733	0.015148	-0.569716	-0.045650	-2.450962	-5.697007	6.144208	356.777	00:05:56.562	2024-01-18
-1.006	0.412	-9.724	0.122808	-0.343039	0.092827	-2.449755	-5.704526	6.147016	356.791	00:05:56.576	2024-01-18
-1.022	0.404	-9.725	0.185770	-0.044508	0.028629	-2.447439	-5.705748	6.148294	356.805	00:05:56.590	2024-01-18
-0.988	0.414	-9.729	0.249341	0.153922	0.033107	-2.444068	-5.704502	6.147411	356.819	00:05:56.604	2024-01-18
-0.937	0.384	-9.756	0.328847	0.137678	-0.351940	-2.439170	-5.703384	6.142661	356.833	00:05:56.618	2024-01-18
-0.958	0.358	-9.764	0.155265	0.198770	-0.843374	-2.435575	-5.701028	6.130899	356.847	00:05:56.632	2024-01-18
-0.999	0.403	-9.747	0.147090	0.409497	-0.806667	-2.432717	-5.695885	6.120838	356.861	00:05:56.646	2024-01-18
-1.038	0.397	-9.719	0.087614	0.770161	-0.360862	-2.430552	-5.687300	6.114604	356.875	00:05:56.660	2024-01-18
-0.991	0.395	-9.720	0.056970	1.011355	0.149175	-2.430732	-5.673446	6.118154	356.889	00:05:56.674	2024-01-18
-0.933	0.402	-9.726	-0.101369	0.990340	0.566790	-2.431227	-5.668091	6.121817	356.903	00:05:56.688	2024-01-18
-0.917	0.412	-9.729	-0.107313	0.661277	0.437469	-2.431960	-5.669113	6.125563	356.917	00:05:56.702	2024-01-18
-0.910	0.418	-9.733	-0.071711	0.298322	0.227563	-2.432691	-5.670134	6.129308	356.931	00:05:56.716	2024-01-18
-0.903	0.425	-9.738	-0.036109	-0.064633	0.017657	-2.433423	-5.671156	6.133053	356.945	00:05:56.730	2024-01-18
-0.896	0.431	-9.743	-0.000506	-0.427589	-0.192250	-2.434155	-5.672177	6.136801	356.959	00:05:56.744	2024-01-18
-0.889	0.438	-9.747	0.035096	-0.790544	-0.402156	-2.434887	-5.673199	6.140546	356.973	00:05:56.758	2024-01-18
-0.966	0.437	-9.746	-0.168070	-0.833916	-0.668109	-2.436143	-5.683692	6.132757	356.987	00:05:56.772	2024-01-18
-1.036	0.435	-9.741	-0.108159	-0.550060	-0.723778	-2.436554	-5.691843	6.124372	357.001	00:05:56.786	2024-01-18
-1.083	0.446	-9.742	-0.000857	-0.062528	-0.447975	-2.435724	-5.694763	6.117762	357.015	00:05:56.800	2024-01-18
-1.067	0.460	-9.747	0.198377	0.440753	0.059717	-2.432278	-5.687109	6.120089	357.029	00:05:56.814	2024-01-18
-1.023	0.441	-9.737	0.400630	0.867703	0.365153	-2.427182	-5.675492	6.123644	357.043	00:05:56.828	2024-01-18
-0.955	0.416	-9.749	0.519423	1.100135	0.324683	-2.420812	-5.660912	6.127411	357.057	00:05:56.842	2024-01-18
-0.902	0.413	-9.730	0.467640	1.080623	0.043390	-2.414225	-5.646388	6.126922	357.071	00:05:56.856	2024-01-18
-0.882	0.406	-9.734	0.449601	0.851751	-0.139874	-2.408669	-5.636060	6.124926	357.085	00:05:56.870	2024-01-18
-0.878	0.405	-9.732	0.301612	0.583776	-0.184924	-2.403987	-5.628780	6.122064	357.099	00:05:56.884	2024-01-18
-0.889	0.400	-9.740	0.261458	0.555868	-0.227971	-2.400459	-5.624926	6.118533	357.113	00:05:56.898	2024-01-18
-0.900	0.395	-9.749	0.221305	0.527960	-0.271019	-2.396931	-5.621070	6.115005	357.127	00:05:56.912	2024-01-18
-0.910	0.390	-9.757	0.181151	0.500052	-0.314066	-2.393404	-5.617215	6.111475	357.141	00:05:56.926	2024-01-18
-0.883	0.416	-9.673	0.147332	0.426827	-0.302064	-2.389875	-5.613361	6.107946	357.155	00:05:56.940	2024-01-18
-0.910	0.396	-9.726	0.019212	0.041195	0.008324	-2.391014	-5.614395	6.109514	357.169	00:05:56.954	2024-01-18
-0.905	0.364	-9.692	-0.302345	-0.190076	0.246698	-2.394025	-5.617638	6.111596	357.183	00:05:56.968	2024-01-18
-0.926	0.385	-9.764	-0.295858	-0.294518	0.095923	-2.398637	-5.621792	6.113719	357.197	00:05:56.982	2024-01-18
-0.958	0.427	-9.778	-0.431293	0.001854	-0.001501	-2.404413	-5.621489	6.113763	357.211	00:05:56.996	2024-01-18
-0.929	0.511	-9.749	0.014290	0.285721	-0.031896	-2.404453	-5.618605	6.114076	357.225	00:05:57.010	2024-01-18
-0.928	0.451	-9.770	0.197438	0.334481	0.071419	-2.401723	-5.615187	6.114391	357.239	00:05:57.024	2024-01-18
-0.886	0.448	-9.683	0.235581	0.203302	-0.003789	-2.397796	-5.613025	6.114435	357.253	00:05:57.038	2024-01-18
-0.885	0.448	-9.676	0.277841	0.252580	0.037391	-2.394742	-5.611400	6.113148	357.267	00:05:57.052	2024-01-18
-0.894	0.446	-9.683	0.320611	0.347425	0.108641	-2.391832	-5.609866	6.111640	357.281	00:05:57.066	2024-01-18
-0.902	0.445	-9.689	0.363381	0.442271	0.179890	-2.388922	-5.608332	6.110128	357.295	00:05:57.080	2024-01-18
-0.911	0.443	-9.695	0.406150	0.537117	0.251140	-2.386013	-5.606797	6.108621	357.309	00:05:57.094	2024-01-18
-0.920	0.442	-9.701	0.448920	0.631963	0.322390	-2.383103	-5.605262	6.107109	357.323	00:05:57.108	2024-01-18
-0.913	0.427	-9.706	0.464182	0.666283	0.414590	-2.380371	-5.603565	6.106657	357.337	00:05:57.122	2024-01-18
-0.856	0.354	-9.706	0.244929	0.280198	0.445417	-2.378708	-5.600901	6.112540	357.351	00:05:57.136	2024-01-18
-0.863	0.347	-9.674	-0.184745	-0.129390	0.121048	-2.379711	-5.603363	6.113129	357.365	00:05:57.150	2024-01-18
-0.935	0.389	-9.768	-0.119606	-0.258322	-0.221977	-2.381532	-5.606681	6.111171	357.379	00:05:57.164	2024-01-18
-0.987	0.413	-9.784	-0.162195	0.034145	-0.228006	-2.382734	-5.607012	6.108137	357.393	00:05:57.178	2024-01-18
-0.970	0.455	-9.786	0.031424	0.463154	-0.133962	-2.381956	-5.600383	6.107426	357.407	00:05:57.192	2024-01-18
-0.945	0.453	-9.778	0.178407	0.761586	0.191008	-2.379664	-5.591675	6.108824	357.421	00:05:57.206	2024-01-18
-0.858	0.440	-9.680	0.307037	0.805884	0.275826	-2.375790	-5.581743	6.112522	357.435	00:05:57.220	2024-01-18
-0.809	0.409	-9.673	0.339637	0.108128	0.202264	-2.371611	-5.583009	6.115172	357.449	00:05:57.234	2024-01-18
-0.851	0.403	-9.705	0.261520	-0.104338	0.059829	-2.367993	-5.584656	6.112332	357.463	00:05:57.248	2024-01-18
-0.907	0.429	-9.717	0.258457	0.010547	-0.151946	-2.364796	-5.586586	6.105372	357.477	00:05:57.262	2024-01-18
-0.963	0.455	-9.730	0.255395	0.125433	-0.363721	-2.361598	-5.588518	6.098413	357.491	00:05:57.276	2024-01-18
-1.018	0.481	-9.742	0.252332	0.240318	-0.575497	-2.358400	-5.590448	6.091453	357.505	00:05:57.290	2024-01-18
-1.008	0.452	-9.720	0.527538	0.628585	0.271921	-2.354585	-5.589204	6.088610	357.519	00:05:57.304	2024-01-18
-0.937	0.375	-9.673	0.442560	0.679941	0.542781	-2.349227	-5.580025	6.096059	357.533	00:05:57.318	2024-01-18
-0.886	0.363	-9.677	0.243353	0.356456	0.324511	-2.345929	-5.575955	6.099788	357.547	00:05:57.332	2024-01-18
-0.924	0.370	-9.814	0.212643	0.310127	0.088423	-2.343734	-5.571281	6.100237	357.561	00:05:57.346	2024-01-18
-0.904	0.365	-9.753	-0.033783	0.555337	-0.240443	-2.342554	-5.564667	6.097138	357.575	00:05:57.360	2024-01-18
-0.920	0.434	-9.801	0.262222	0.667853	-0.502548	-2.338186	-5.555613	6.090998	357.589	00:05:57.374	2024-01-18
-0.910	0.437	-9.731	0.188400	0.812120	-0.008771	-2.334165	-5.546513	6.089625	357.603	00:05:57.388	2024-01-18
-0.885	0.412	-9.676	0.346249	0.630148	0.226432	-2.330910	-5.538372	6.091693	357.617	00:05:57.402	2024-01-18
-0.889	0.380	-9.731	0.199008	0.517985	0.260752	-2.330682	-5.536178	6.092953	357.631	00:05:57.416	2024-01-18
-0.885	0.395	-9.739	0.139548	0.437257	0.268671	-2.330454	-5.533984	6.094212	357.645	00:05:57.430	2024-01-18
-0.881	0.409	-9.747	0.080087	0.356529	0.276589	-2.330226	-5.531789	6.095472	357.659	00:05:57.444	2024-01-18
-0.877	0.424	-9.755	0.020627	0.275801	0.284508	-2.329998	-5.529595	6.096732	357.673	00:05:57.458	2024-01-18
-0.872	0.433	-9.758	-0.033809	0.182853	0.327600	-2.329770	-5.527401	6.097991	357.687	00:05:57.472	2024-01-18
-0.862	0.401	-9.729	-0.000669	0.001568	0.340137	-2.329242	-5.527634	6.099275	357.701	00:05:57.486	2024-01-18
-0.870	0.387	-9.714	0.083728	-0.207025	0.012358	-2.328312	-5.531103	6.100588	357.715	00:05:57.500	2024-01-18
-0.901	0.388	-9.732	0.065209	-0.345037	-0.182585	-2.327614	-5.536790	6.098191	357.729	00:05:57.514	2024-01-18
-0.931	0.381	-9.757	-0.028166	-0.381150	-0.102893	-2.327958	-5.542271	6.097498	357.743	00:05:57.528	2024-01-18
-0.931	0.396	-9.755	-0.120581	-0.293493	0.062189	-2.329164	-5.547142	6.098257	357.757	00:05:57.542	2024-01-18
-0.956	0.401	-9.759	-0.114590	-0.150037	0.141383	-2.330849	-5.549302	6.100047	357.771	00:05:57.556	2024-01-18
-0.966	0.400	-9.743	-0.031208	0.073326	-0.003095	-2.330975	-5.548042	6.099808	357.785	00:05:57.570	2024-01-18
-0.968	0.419	-9.731	0.030823	0.344332	-0.128987	-2.330023	-5.545093	6.099049	357.799	00:05:57.584	2024-01-18
-0.934	0.430	-9.739	0.141687	0.511812	-0.081309	-2.327938	-5.541339	6.099014	357.813	00:05:57.598	2024-01-18
-0.915	0.415	-9.745	0.163804	0.406503	-0.027191	-2.325853	-5.537584	6.098980	357.827	00:05:57.612	2024-01-18
-0.902	0.397	-9.752	0.174081	0.249393	0.020344	-2.323768	-5.533828	6.098948	357.841	00:05:57.626	2024-01-18
-0.889	0.378	-9.759	0.184358	0.092283	0.067879	-2.321684	-5.530073	6.098914	357.855	00:05:57.640	2024-01-18
-0.912	0.374	-9.743	0.084621	0.182857	-0.138422	-2.320334	-5.528289	6.096271	357.869	00:05:57.654	2024-01-18
-0.932	0.384	-9.726	0.034201	0.282716	-0.185404	-2.319336	-5.525099	6.094502	357.883	00:05:57.668	2024-01-18
-0.939	0.403	-9.736	0.068344	0.390800	-0.039999	-2.318570	-5.520786	6.093643	357.897	00:05:57.682	2024-01-18
-0.934	0.404	-9.747	0.086457	0.392157	0.062360	-2.317625	-5.516044	6.094286	357.911	00:05:57.696	2024-01-18
-0.907	0.410	-9.752	0.073815	0.388854	0.117109	-2.316742	-5.511756	6.096510	357.925	00:05:57.710	2024-01-18
-0.884	0.421	-9.740	0.067266	0.297424	0.269781	-2.316215	-5.508057	6.100141	357.939	00:05:57.724	2024-01-18
-0.884	0.406	-9.732	0.009393	0.249347	0.401651	-2.316520	-5.505374	6.105703	357.953	00:05:57.738	2024-01-18
-0.871	0.423	-9.744	-0.092482	0.090566	0.358702	-2.313042	-5.503734	6.102958	357.967	00:05:57.752	2024-01-18
-0.871	0.425	-9.779	-0.007827	0.091562	0.195820	-2.308935	-5.502266	6.098827	357.981	00:05:57.766	2024-01-18
-0.894	0.417	-9.778	0.059174	0.242103	0.095226	-2.304827	-5.500800	6.094696	357.995	00:05:57.780	2024-01-18
-0.917	0.409	-9.778	0.126174	0.392645	-0.005368	-2.300720	-5.499333	6.090566	358.009	00:05:57.794	2024-01-18
-0.940	0.401	-9.777	0.193175	0.543186	-0.105962	-2.296613	-5.497865	6.086435	358.023	00:05:57.808	2024-01-18
-0.963	0.393	-9.777	0.260175	0.693728	-0.206556	-2.292505	-5.496397	6.082304	358.037	00:05:57.822	2024-01-18
-0.986	0.385	-9.776	0.327176	0.844269	-0.307150	-2.288397	-5.494929	6.078172	358.051	00:05:57.836	2024-01-18
-1.009	0.378	-9.776	0.394176	0.994811	-0.407744	-2.284290	-5.493460	6.074041	358.065	00:05:57.850	2024-01-18
-0.957	0.389	-9.763	0.401879	1.333372	-0.270371	-2.279815	-5.486854	6.070951	358.079	00:05:57.864	2024-01-18
-0.893	0.393	-9.738	0.386113	1.456337	0.030229	-2.274419	-5.467404	6.070460	358.093	00:05:57.878	2024-01-18
-0.840	0.370	-9.730	0.318247	1.231060	0.393474	-2.271058	-5.452417	6.075168	358.107	00:05:57.892	2024-01-18
-0.780	0.338	-9.734	0.122552	0.727546	0.423325	-2.270120	-5.443322	6.080209	358.121	00:05:57.906	2024-01-18
-0.757	0.337	-9.748	-0.158588	0.106448	0.314505	-2.271962	-5.441091	6.084539	358.135	00:05:57.920	2024-01-18
-0.764	0.353	-9.748	-0.377443	-0.406570	0.030374	-2.278052	-5.449830	6.084826	358.149	00:05:57.934	2024-01-18
-0.806	0.388	-9.748	-0.525109	-0.865451	-0.065505	-2.285149	-5.462418	6.085106	358.163	00:05:57.948	2024-01-18
-0.880	0.403	-9.734	-0.580724	-1.081386	-0.031520	-2.292785	-5.478022	6.085485	358.177	00:05:57.962	2024-01-18
-0.932	0.430	-9.733	-0.454594	-1.099471	0.037006	-2.299109	-5.494395	6.086456	358.191	00:05:57.976	2024-01-18
-0.973	0.433	-9.763	-0.322345	-0.910343	-0.029495	-2.302803	-5.506970	6.086398	358.205	00:05:57.990	2024-01-18
-0.979	0.448	-9.752	-0.118233	-0.614391	-0.130579	-2.304272	-5.515807	6.085411	358.219	00:05:58.004	2024-01-18
-1.001	0.437	-9.747	0.075084	-0.184742	-0.183887	-2.302810	-5.519090	6.083135	358.233	00:05:58.018	2024-01-18
-1.027	0.439	-9.741	0.180847	0.257887	-0.167040	-2.299532	-5.514073	6.081696	358.247	00:05:58.032	2024-01-18
-1.001	0.430	-9.741	0.304046	0.724269	0.044458	-2.295360	-5.504711	6.081543	358.261	00:05:58.046	2024-01-18
-0.947	0.410	-9.751	0.334909	1.025834	0.174076	-2.290397	-5.491400	6.082919	358.275	00:05:58.060	2024-01-18
-0.883	0.404	-9.752	0.408019	0.998772	-0.002518	-2.284402	-5.478519	6.081747	358.289	00:05:58.074	2024-01-18
-0.846	0.383	-9.742	0.424183	0.839295	-0.146287	-2.278692	-5.468365	6.079520	358.303	00:05:58.088	2024-01-18
-0.841	0.377	-9.746	0.365540	0.587918	-0.209828	-2.273726	-5.461317	6.076592	358.317	00:05:58.102	2024-01-18
-0.849	0.381	-9.744	0.333289	0.472241	-0.179001	-2.271958	-5.460637	6.074207	358.331	00:05:58.116	2024-01-18
-0.857	0.385	-9.743	0.301037	0.356565	-0.148174	-2.270192	-5.459958	6.071820	358.345	00:05:58.130	2024-01-18
-0.865	0.388	-9.741	0.268786	0.240889	-0.117347	-2.268424	-5.459278	6.069435	358.359	00:05:58.144	2024-01-18
-0.873	0.392	-9.739	0.236534	0.125212	-0.086520	-2.266657	-5.458598	6.067050	358.373	00:05:58.158	2024-01-18
-0.881	0.396	-9.737	0.204282	0.009536	-0.055693	-2.264890	-5.457918	6.064663	358.387	00:05:58.172	2024-01-18
-0.890	0.400	-9.735	0.172031	-0.106140	-0.024865	-2.263123	-5.457238	6.062277	358.401	00:05:58.186	2024-01-18
-0.907	0.388	-9.738	0.221301	-0.122653	0.024176	-2.261355	-5.456558	6.059891	358.415	00:05:58.200	2024-01-18
-0.920	0.366	-9.741	0.206687	-0.081085	-0.096347	-2.258040	-5.458435	6.057865	358.429	00:05:58.214	2024-01-18
-0.940	0.356	-9.749	0.199523	-0.000682	-0.315545	-2.255143	-5.458486	6.053845	358.443	00:05:58.228	2024-01-18
-0.945	0.343	-9.760	0.085761	0.207794	-0.386501	-2.253125	-5.456535	6.048597	358.457	00:05:58.242	2024-01-18
-0.945	0.357	-9.758	-0.116595	0.419280	-0.275274	-2.254482	-5.450798	6.044918	358.471	00:05:58.256	2024-01-18
-0.929	0.383	-9.755	-0.270438	0.648126	-0.032807	-2.258255	-5.442985	6.045285	358.485	00:05:58.270	2024-01-18
-0.893	0.418	-9.740	-0.294909	0.669814	0.283278	-2.262725	-5.434837	6.048798	358.499	00:05:58.284	2024-01-18
-0.825	0.435	-9.730	-0.256886	0.524148	0.537564	-2.266522	-5.427918	6.056135	358.513	00:05:58.298	2024-01-18
-0.767	0.413	-9.732	-0.153859	0.040809	0.580442	-2.269324	-5.429835	6.062931	358.527	00:05:58.312	2024-01-18
-0.789	0.401	-9.742	-0.117235	-0.426127	0.238647	-2.271249	-5.437262	6.065162	358.541	00:05:58.326	2024-01-18
-0.849	0.409	-9.747	-0.101697	-0.743378	-0.160666	-2.272225	-5.450068	6.061432	358.555	00:05:58.340	2024-01-18
-0.920	0.413	-9.751	-0.065185	-0.911727	-0.445154	-2.273200	-5.462876	6.057703	358.569	00:05:58.354	2024-01-18
-1.009	0.407	-9.749	-0.010527	-0.591974	-0.337380	-2.272715	-5.470931	6.055384	358.583	00:05:58.368	2024-01-18
-1.031	0.422	-9.739	0.109847	-0.107131	-0.000012	-2.270908	-5.473913	6.054769	358.597	00:05:58.382	2024-01-18
-1.002	0.411	-9.755	0.266756	0.411502	0.243622	-2.267754	-5.467860	6.058034	358.611	00:05:58.396	2024-01-18
-0.956	0.378	-9.762	0.224884	0.700400	0.132238	-2.264524	-5.458475	6.059052	358.625	00:05:58.410	2024-01-18
-0.895	0.385	-9.754	0.230823	0.849261	-0.006685	-2.261183	-5.447901	6.058966	358.639	00:05:58.424	2024-01-18
-0.863	0.380	-9.736	0.221356	0.766651	-0.046303	-2.257639	-5.437690	6.058349	358.653	00:05:58.438	2024-01-18
-0.843	0.378	-9.729	0.299194	0.464491	0.143314	-2.254285	-5.432796	6.060416	358.667	00:05:58.452	2024-01-18
-0.837	0.362	-9.737	0.242809	0.269721	0.212449	-2.253572	-5.432479	6.063005	358.681	00:05:58.466	2024-01-18
-0.845	0.370	-9.737	0.172747	0.178547	0.272369	-2.256337	-5.437086	6.065687	358.695	00:05:58.480	2024-01-18
-0.852	0.379	-9.737	0.102686	0.087372	0.332290	-2.259104	-5.441692	6.068370	358.709	00:05:58.494	2024-01-18
-0.859	0.387	-9.737	0.032624	-0.003802	0.392210	-2.261869	-5.446298	6.071053	358.723	00:05:58.508	2024-01-18
-0.866	0.395	-9.737	-0.037438	-0.094977	0.452130	-2.264636	-5.450904	6.073736	358.737	00:05:58.522	2024-01-18
-0.874	0.404	-9.738	-0.107500	-0.186151	0.512051	-2.267403	-5.455511	6.076421	358.751	00:05:58.536	2024-01-18
-0.881	0.412	-9.738	-0.177562	-0.277326	0.571971	-2.270170	-5.460116	6.079104	358.765	00:05:58.550	2024-01-18
-0.887	0.410	-9.756	-0.037454	-0.303219	0.107626	-2.271952	-5.464751	6.079403	358.779	00:05:58.564	2024-01-18
-0.920	0.395	-9.749	-0.001921	-0.298415	-0.427244	-2.271273	-5.469454	6.073742	358.793	00:05:58.578	2024-01-18
-0.987	0.410	-9.759	0.024031	-0.001402	-0.714931	-2.270027	-5.468926	6.065454	358.807	00:05:58.592	2024-01-18
-1.006	0.417	-9.744	0.052241	0.382426	-0.336242	-2.268735	-5.464269	6.061422	358.821	00:05:58.606	2024-01-18
-0.966	0.406	-9.738	0.089081	0.778139	0.267592	-2.267506	-5.455270	6.063647	358.835	00:05:58.620	2024-01-18
-0.895	0.368	-9.745	0.055245	0.862844	0.585366	-2.267815	-5.443760	6.071440	358.849	00:05:58.634	2024-01-18
-0.820	0.367	-9.741	-0.034111	0.684290	0.450132	-2.268964	-5.436025	6.075732	358.863	00:05:58.648	2024-01-18
-0.787	0.389	-9.744	-0.142806	0.283463	-0.012486	-2.270544	-5.432486	6.076709	358.877	00:05:58.662	2024-01-18
-0.781	0.415	-9.743	-0.065306	-0.210201	-0.235866	-2.270913	-5.437143	6.073542	358.891	00:05:58.676	2024-01-18
-0.826	0.414	-9.741	0.017685	-0.501695	-0.271852	-2.269806	-5.446736	6.070201	358.905	00:05:58.690	2024-01-18
-0.875	0.398	-9.740	0.097781	-0.730217	-0.248095	-2.268110	-5.458304	6.066790	358.919	00:05:58.704	2024-01-18
-0.932	0.378	-9.733	0.113397	-0.758617	-0.305269	-2.266412	-5.469872	6.063378	358.933	00:05:58.718	2024-01-18
-0.970	0.364	-9.742	0.103640	-0.607143	-0.335878	-2.264705	-5.478506	6.059141	358.947	00:05:58.732	2024-01-18
-0.993	0.383	-9.757	0.068553	-0.269745	-0.353029	-2.263161	-5.482795	6.055057	358.961	00:05:58.746	2024-01-18
-0.992	0.394	-9.758	0.077088	0.139640	-0.229672	-2.261837	-5.481941	6.051364	358.975	00:05:58.760	2024-01-18
-0.988	0.403	-9.757	0.063941	0.584954	0.011299	-2.261070	-5.472622	6.052078	358.989	00:05:58.774	2024-01-18
-0.935	0.401	-9.745	0.097561	0.802609	0.189620	-2.259482	-5.462825	6.054015	359.003	00:05:58.788	2024-01-18
-0.846	0.391	-9.737	0.209062	0.705504	0.198674	-2.257892	-5.454242	6.056717	359.017	00:05:58.802	2024-01-18
-0.808	0.355	-9.744	0.166713	0.291050	-0.126815	-2.259982	-5.455103	6.058505	359.031	00:05:58.816	2024-01-18
-0.811	0.344	-9.747	0.090126	0.148581	-0.138677	-2.262071	-5.455963	6.060292	359.045	00:05:58.830	2024-01-18
-0.818	0.347	-9.748	0.051514	0.113022	-0.023929	-2.264161	-5.456824	6.062079	359.059	00:05:58.844	2024-01-18
-0.825	0.350	-9.748	0.012902	0.077462	0.090819	-2.266250	-5.457685	6.063865	359.073	00:05:58.858	2024-01-18
-0.832	0.353	-9.749	-0.025710	0.041903	0.205567	-2.268339	-5.458545	6.065652	359.087	00:05:58.872	2024-01-18
-0.839	0.356	-9.749	-0.064322	0.006344	0.320316	-2.270429	-5.459405	6.067440	359.101	00:05:58.886	2024-01-18
-0.846	0.360	-9.750	-0.102934	-0.029215	0.435064	-2.272518	-5.460266	6.069226	359.115	00:05:58.900	2024-01-18
-0.843	0.363	-9.751	-0.173584	-0.117909	0.469693	-2.274608	-5.461126	6.071014	359.129	00:05:58.914	2024-01-18
-0.825	0.389	-9.746	-0.294195	-0.384739	0.255800	-2.278145	-5.466444	6.073519	359.143	00:05:58.928	2024-01-18
-0.848	0.405	-9.738	-0.338144	-0.656588	0.185558	-2.282856	-5.475880	6.076670	359.157	00:05:58.942	2024-01-18
-0.869	0.424	-9.733	-0.350410	-0.927077	0.215617	-2.288081	-5.489978	6.080439	359.171	00:05:58.956	2024-01-18
-0.875	0.417	-9.742	-0.349007	-1.128104	0.299490	-2.293189	-5.506367	6.084283	359.185	00:05:58.970	2024-01-18
-0.893	0.427	-9.747	-0.324584	-1.220285	0.116657	-2.297616	-5.523308	6.086827	359.199	00:05:58.984	2024-01-18
-0.947	0.409	-9.746	-0.214693	-1.098993	-0.127884	-2.300455	-5.539339	6.086036	359.213	00:05:58.998	2024-01-18
-1.017	0.439	-9.741	-0.153624	-0.708217	-0.161644	-2.302005	-5.548114	6.085054	359.227	00:05:59.012	2024-01-18
-1.051	0.461	-9.740	0.056079	-0.187158	0.013898	-2.301132	-5.551325	6.085472	359.241	00:05:59.026	2024-01-18
-1.038	0.421	-9.765	0.314448	0.268119	0.198158	-2.297312	-5.548726	6.087795	359.255	00:05:59.040	2024-01-18
-0.981	0.408	-9.772	0.490035	0.593346	-0.043460	-2.289877	-5.539502	6.085681	359.269	00:05:59.054	2024-01-18
-0.931	0.402	-9.771	0.513878	0.845312	-0.240211	-2.281861	-5.528557	6.082676	359.283	00:05:59.068	2024-01-18
-0.908	0.412	-9.718	0.595024	0.962996	-0.215714	-2.273400	-5.516249	6.079435	359.297	00:05:59.082	2024-01-18
-0.917	0.361	-9.687	0.624560	0.971838	-0.027476	-2.264887	-5.503527	6.078739	359.311	00:05:59.096	2024-01-18
-0.897	0.302	-9.725	0.463668	0.808421	0.060949	-2.259953	-5.493884	6.078706	359.325	00:05:59.110	2024-01-18
-0.856	0.304	-9.765	0.125840	0.545461	-0.039315	-2.258054	-5.486808	6.077998	359.339	00:05:59.124	2024-01-18
-0.846	0.336	-9.803	-0.186310	0.364714	-0.206254	-2.260167	-5.483066	6.074946	359.353	00:05:59.138	2024-01-18
-0.851	0.387	-9.779	-0.263789	0.282934	-0.144078	-2.264082	-5.480232	6.074727	359.367	00:05:59.152	2024-01-18
-0.872	0.397	-9.765	-0.292588	0.224588	0.098921	-2.268829	-5.482471	6.076153	359.381	00:05:59.166	2024-01-18
-0.887	0.400	-9.759	-0.247146	0.155843	0.097182	-2.274282	-5.491274	6.079142	359.395	00:05:59.180	2024-01-18
-0.902	0.404	-9.752	-0.201703	0.087099	0.095444	-2.279734	-5.500078	6.082131	359.409	00:05:59.194	2024-01-18
-0.917	0.407	-9.745	-0.156261	0.018354	0.093705	-2.285189	-5.508881	6.085123	359.423	00:05:59.208	2024-01-18
-0.932	0.411	-9.738	-0.110819	-0.050391	0.091967	-2.290643	-5.517683	6.088115	359.437	00:05:59.222	2024-01-18
-0.947	0.414	-9.731	-0.065376	-0.119136	0.090229	-2.296097	-5.526486	6.091107	359.451	00:05:59.236	2024-01-18
-0.962	0.418	-9.724	-0.019934	-0.187881	0.088490	-2.301553	-5.535286	6.094102	359.465	00:05:59.250	2024-01-18
-0.977	0.421	-9.717	0.025509	-0.256626	0.086752	-2.307009	-5.544088	6.097097	359.479	00:05:59.264	2024-01-18
-0.992	0.425	-9.711	0.070951	-0.325371	0.085013	-2.312465	-5.552891	6.100091	359.493	00:05:59.278	2024-01-18
-0.993	0.458	-9.710	0.162140	-0.106224	0.147419	-2.310361	-5.554562	6.103447	359.507	00:05:59.292	2024-01-18
-0.973	0.417	-9.743	0.349784	0.098841	0.258368	-2.306406	-5.553590	6.105147	359.521	00:05:59.306	2024-01-18
-0.937	0.374	-9.777	0.291725	0.290381	-0.133756	-2.301664	-5.550679	6.104558	359.535	00:05:59.320	2024-01-18
-0.927	0.400	-9.777	0.355043	0.375169	-0.420084	-2.296075	-5.545840	6.098286	359.549	00:05:59.334	2024-01-18
-0.930	0.409	-9.735	0.397039	0.469324	-0.322427	-2.289913	-5.540076	6.095274	359.563	00:05:59.348	2024-01-18
-0.925	0.352	-9.734	0.479107	0.501658	0.096473	-2.284078	-5.533693	6.095467	359.577	00:05:59.362	2024-01-18
-0.893	0.325	-9.727	0.171386	0.504796	0.352127	-2.282793	-5.527778	6.100236	359.591	00:05:59.376	2024-01-18
-0.827	0.335	-9.742	-0.157969	0.254778	0.323450	-2.285561	-5.526794	6.103770	359.605	00:05:59.390	2024-01-18
-0.809	0.350	-9.760	-0.337124	-0.215350	0.090882	-2.290577	-5.530128	6.105658	359.619	00:05:59.404	2024-01-18
-0.825	0.388	-9.762	-0.470374	-0.585379	-0.118086	-2.297153	-5.539326	6.104654	359.633	00:05:59.418	2024-01-18
-0.857	0.414	-9.733	-0.476829	-0.825412	-0.101423	-2.303500	-5.552068	6.104137	359.647	00:05:59.432	2024-01-18
-0.907	0.395	-9.738	-0.496513	-0.922496	-0.003473	-2.310454	-5.565549	6.104502	359.661	00:05:59.446	2024-01-18
-0.927	0.393	-9.742	-0.552215	-0.926572	0.075189	-2.318271	-5.579228	6.105935	359.675	00:05:59.460	2024-01-18
-0.936	0.416	-9.745	-0.565168	-0.917172	-0.089995	-2.325500	-5.592880	6.104489	359.689	00:05:59.474	2024-01-18
-0.962	0.418	-9.754	-0.473647	-0.840813	-0.248692	-2.331239	-5.604034	6.102155	359.703	00:05:59.488	2024-01-18
-1.024	0.439	-9.734	-0.321100	-0.493650	-0.224447	-2.335359	-5.611838	6.099644	359.717	00:05:59.502	2024-01-18
-1.058	0.448	-9.753	-0.131541	0.023869	0.002689	-2.336475	-5.610784	6.100045	359.731	00:05:59.516	2024-01-18
-1.038	0.443	-9.754	-0.059909	0.173217	0.071833	-2.334317	-5.605974	6.098934	359.745	00:05:59.530	2024-01-18
-1.012	0.431	-9.751	-0.015153	0.129683	0.040995	-2.330849	-5.599661	6.097217	359.759	00:05:59.544	2024-01-18
-0.986	0.420	-9.748	0.029603	0.086149	0.010157	-2.327381	-5.593349	6.095501	359.773	00:05:59.558	2024-01-18
-0.961	0.408	-9.745	0.074359	0.042615	-0.020681	-2.323913	-5.587035	6.093785	359.787	00:05:59.572	2024-01-18
-0.935	0.396	-9.742	0.119116	-0.000919	-0.051519	-2.320446	-5.580723	6.092069	359.801	00:05:59.586	2024-01-18
-0.910	0.384	-9.739	0.163872	-0.044452	-0.082357	-2.316978	-5.574410	6.090353	359.815	00:05:59.600	2024-01-18
-0.884	0.372	-9.736	0.208628	-0.087986	-0.113195	-2.313511	-5.568097	6.088638	359.829	00:05:59.614	2024-01-18
-0.883	0.372	-9.736	0.172775	-0.193876	-0.124796	-2.311788	-5.567684	6.087261	359.843	00:05:59.628	2024-01-18
-0.906	0.359	-9.750	-0.016498	-0.237147	-0.064577	-2.311872	-5.571776	6.086487	359.857	00:05:59.642	2024-01-18
-0.929	0.372	-9.744	-0.187759	-0.270859	0.049853	-2.314951	-5.576356	6.087804	359.871	00:05:59.656	2024-01-18
-0.937	0.388	-9.740	-0.278744	-0.196862	0.200308	-2.319214	-5.579722	6.091110	359.885	00:05:59.670	2024-01-18
-0.928	0.411	-9.740	-0.297194	-0.185867	0.314973	-2.323641	-5.582816	6.095237	359.899	00:05:59.684	2024-01-18
-0.918	0.415	-9.736	-0.257583	-0.209548	0.300582	-2.327289	-5.586442	6.099425	359.913	00:05:59.698	2024-01-18
-0.906	0.416	-9.736	-0.225157	-0.197260	0.145574	-2.330387	-5.589819	6.101233	359.927	00:05:59.712	2024-01-18
-0.905	0.435	-9.746	-0.142174	-0.234953	-0.015206	-2.332239	-5.593274	6.101777	359.941	00:05:59.726	2024-01-18
-0.925	0.448	-9.750	-0.035980	-0.205798	-0.090081	-2.332551	-5.596885	6.101160	359.955	00:05:59.740	2024-01-18
-0.945	0.435	-9.745	0.116528	-0.126573	-0.066264	-2.330451	-5.598690	6.100116	359.969	00:05:59.754	2024-01-18
-0.963	0.420	-9.748	0.212203	0.023136	-0.093129	-2.327680	-5.598883	6.098815	359.983	00:05:59.768	2024-01-18
-0.958	0.408	-9.739	0.247371	0.180729	-0.118582	-2.324246	-5.597658	6.097444	359.997	00:05:59.782	2024-01-18
-0.948	0.397	-9.740	0.284887	0.223847	-0.041364	-2.319849	-5.595197	6.096818	360.011	00:05:59.796	2024-01-18
-0.943	0.398	-9.755	0.297206	0.330665	0.031476	-2.316273	-5.591233	6.097265	360.025	00:05:59.810	2024-01-18
-0.923	0.390	-9.746	0.248453	0.390750	0.079129	-2.313037	-5.586681	6.097911	360.039	00:05:59.824	2024-01-18
-0.904	0.380	-9.741	0.209093	0.364548	0.000352	-2.309838	-5.582162	6.097992	360.053	00:05:59.838	2024-01-18
-0.898	0.374	-9.728	0.128764	0.292529	-0.047064	-2.308395	-5.579207	6.097536	360.067	00:05:59.852	2024-01-18
-0.901	0.361	-9.735	0.005656	0.211346	-0.029617	-2.308639	-5.577125	6.097593	360.081	00:05:59.866	2024-01-18
-0.910	0.374	-9.736	-0.191434	0.119728	0.079987	-2.310745	-5.575862	6.098456	360.095	00:05:59.880	2024-01-18
-0.914	0.382	-9.738	-0.188450	0.062273	0.053132	-2.312874	-5.579755	6.100257	360.109	00:05:59.894	2024-01-18
-0.918	0.390	-9.740	-0.185467	0.004818	0.026277	-2.315002	-5.583649	6.102056	360.123	00:05:59.908	2024-01-18
-0.922	0.397	-9.742	-0.182484	-0.052637	-0.000578	-2.317131	-5.587542	6.103857	360.137	00:05:59.922	2024-01-18
-0.926	0.405	-9.743	-0.179501	-0.110092	-0.027433	-2.319260	-5.591436	6.105658	360.151	00:05:59.936	2024-01-18
-0.930	0.412	-9.745	-0.176518	-0.167547	-0.054289	-2.321389	-5.595329	6.107460	360.165	00:05:59.950	2024-01-18
-0.934	0.420	-9.747	-0.173535	-0.225002	-0.081144	-2.323518	-5.599222	6.109261	360.179	00:05:59.964	2024-01-18
-0.951	0.425	-9.749	-0.119206	-0.133636	-0.195943	-2.325647	-5.603116	6.111061	360.193	00:05:59.978	2024-01-18
-0.970	0.425	-9.753	0.057801	0.016622	-0.236966	-2.324003	-5.602520	6.108346	360.207	00:05:59.992	2024-01-18
-0.972	0.426	-9.743	0.229357	0.229225	-0.153596	-2.320586	-5.600074	6.106350	360.221	00:06:00.006	2024-01-18
-0.962	0.420	-9.729	0.354771	0.376531	0.025778	-2.315644	-5.596157	6.106319	360.235	00:06:00.020	2024-01-18
-0.946	0.416	-9.747	0.393965	0.511663	0.011049	-2.310111	-5.589058	6.106252	360.249	00:06:00.034	2024-01-18
-0.910	0.401	-9.745	0.385391	0.598092	0.005628	-2.305006	-5.581744	6.105605	360.263	00:06:00.048	2024-01-18
-0.914	0.380	-9.754	0.311573	0.583561	-0.114787	-2.300449	-5.574447	6.104189	360.277	00:06:00.062	2024-01-18
-0.911	0.387	-9.744	0.231771	0.494139	-0.236472	-2.297250	-5.568222	6.100787	360.291	00:06:00.076	2024-01-18
-0.911	0.412	-9.736	0.217374	0.452582	-0.056019	-2.293912	-5.563161	6.100094	360.305	00:06:00.090	2024-01-18
-0.903	0.391	-9.744	0.191438	0.379288	0.073640	-2.291522	-5.559149	6.100221	360.319	00:06:00.104	2024-01-18
-0.894	0.386	-9.747	0.049340	0.306000	0.006723	-2.291636	-5.556601	6.099677	360.333	00:06:00.118	2024-01-18
-0.881	0.384	-9.748	-0.083805	0.214868	-0.074570	-2.291751	-5.554051	6.099135	360.347	00:06:00.132	2024-01-18
-0.861	0.388	-9.751	-0.097383	0.025958	-0.290226	-2.291726	-5.553941	6.096116	360.361	00:06:00.146	2024-01-18
-0.891	0.399	-9.749	-0.039761	-0.180148	-0.480960	-2.291517	-5.557081	6.089800	360.375	00:06:00.160	2024-01-18
-0.911	0.413	-9.745	0.054750	-0.140266	-0.423011	-2.289487	-5.559869	6.084657	360.389	00:06:00.174	2024-01-18
-0.951	0.397	-9.739	0.121202	-0.091589	-0.355705	-2.287945	-5.560969	6.080166	360.403	00:06:00.188	2024-01-18
-0.968	0.401	-9.740	0.025848	0.120887	-0.241356	-2.286946	-5.560258	6.076598	360.417	00:06:00.202	2024-01-18
-0.983	0.400	-9.745	-0.014630	0.311105	-0.091360	-2.287006	-5.556289	6.075631	360.431	00:06:00.216	2024-01-18
-0.949	0.406	-9.742	0.062547	0.525377	0.118845	-2.285766	-5.550136	6.077275	360.445	00:06:00.230	2024-01-18
-0.929	0.408	-9.744	0.126090	0.518510	0.229300	-2.284315	-5.544587	6.078862	360.459	00:06:00.244	2024-01-18
-0.937	0.410	-9.744	0.093423	0.472550	0.175906	-2.283637	-5.542737	6.077695	360.473	00:06:00.258	2024-01-18
-0.944	0.411	-9.743	0.060756	0.426591	0.122513	-2.282959	-5.540885	6.076530	360.487	00:06:00.272	2024-01-18
-0.951	0.412	-9.743	0.028089	0.380632	0.069119	-2.282281	-5.539035	6.075364	360.501	00:06:00.286	2024-01-18
-0.958	0.413	-9.742	-0.004578	0.334672	0.015725	-2.281603	-5.537184	6.074198	360.515	00:06:00.300	2024-01-18
-0.966	0.415	-9.742	-0.037245	0.288713	-0.037669	-2.280925	-5.535333	6.073032	360.529	00:06:00.314	2024-01-18
-0.973	0.416	-9.741	-0.069912	0.242753	-0.091062	-2.280247	-5.533482	6.071865	360.543	00:06:00.328	2024-01-18
-0.960	0.415	-9.743	0.015660	0.431636	0.143121	-2.279740	-5.530865	6.071506	360.557	00:06:00.342	2024-01-18
-0.934	0.389	-9.746	0.027300	0.522242	0.325706	-2.280250	-5.523652	6.075984	360.571	00:06:00.356	2024-01-18
-0.924	0.389	-9.735	-0.058737	0.691049	0.252187	-2.280060	-5.516542	6.080780	360.585	00:06:00.370	2024-01-18
-0.872	0.413	-9.738	0.092314	0.453015	0.330344	-2.279003	-5.510204	6.084010	360.599	00:06:00.384	2024-01-18
-0.880	0.406	-9.741	0.199107	0.377435	-0.097651	-2.276477	-5.505695	6.083004	360.613	00:06:00.398	2024-01-18
-0.899	0.408	-9.743	0.327869	0.290296	-0.248338	-2.271726	-5.502020	6.079210	360.627	00:06:00.412	2024-01-18
-0.914	0.402	-9.748	0.322094	0.362498	-0.262157	-2.267122	-5.498162	6.076276	360.641	00:06:00.426	2024-01-18
-0.914	0.387	-9.763	0.247259	0.353543	-0.009436	-2.263202	-5.493880	6.075098	360.655	00:06:00.440	2024-01-18
-0.890	0.377	-9.749	0.188432	0.238247	0.172914	-2.261025	-5.492220	6.078041	360.669	00:06:00.454	2024-01-18
-0.872	0.382	-9.760	0.159198	0.028855	0.202609	-2.259641	-5.493173	6.080295	360.683	00:06:00.468	2024-01-18
-0.869	0.390	-9.749	0.087598	-0.111641	0.145833	-2.258851	-5.496086	6.082035	360.697	00:06:00.482	2024-01-18
-0.877	0.390	-9.727	-0.009453	-0.230412	0.067415	-2.258062	-5.498999	6.083772	360.711	00:06:00.496	2024-01-18
-0.901	0.394	-9.728	-0.105220	-0.328142	0.085167	-2.259264	-5.503384	6.085145	360.725	00:06:00.510	2024-01-18
-0.923	0.410	-9.737	-0.088491	-0.305486	0.049684	-2.260557	-5.508065	6.085839	360.739	00:06:00.524	2024-01-18
-0.946	0.409	-9.767	0.015628	-0.248572	-0.045749	-2.260083	-5.512013	6.085196	360.753	00:06:00.538	2024-01-18
-0.957	0.406	-9.773	0.086054	0.024477	-0.319307	-2.257703	-5.511658	6.081023	360.767	00:06:00.552	2024-01-18
-0.969	0.393	-9.762	0.244074	0.325136	-0.356217	-2.254300	-5.507877	6.076255	360.781	00:06:00.566	2024-01-18
-0.977	0.365	-9.728	0.263652	0.641766	-0.292326	-2.249958	-5.500482	6.071478	360.795	00:06:00.580	2024-01-18
-0.980	0.368	-9.731	0.175338	0.918502	-0.111757	-2.247558	-5.487366	6.070451	360.809	00:06:00.594	2024-01-18
-0.955	0.373	-9.730	0.110855	0.838831	-0.054458	-2.245978	-5.479596	6.071386	360.823	00:06:00.608	2024-01-18
-0.933	0.373	-9.732	0.082637	0.591116	-0.074813	-2.245013	-5.475833	6.073795	360.837	00:06:00.622	2024-01-18
-0.911	0.374	-9.734	0.054420	0.343401	-0.095168	-2.244049	-5.472071	6.076202	360.851	00:06:00.636	2024-01-18
-0.889	0.375	-9.735	0.026202	0.095685	-0.115523	-2.243084	-5.468308	6.078609	360.865	00:06:00.650	2024-01-18
-0.867	0.376	-9.737	-0.002016	-0.152030	-0.135878	-2.242119	-5.464546	6.081019	360.879	00:06:00.664	2024-01-18
-0.845	0.376	-9.739	-0.030234	-0.399745	-0.156234	-2.241154	-5.460783	6.083426	360.893	00:06:00.678	2024-01-18
-0.881	0.387	-9.739	-0.079833	-0.545890	-0.299616	-2.241350	-5.468011	6.079758	360.907	00:06:00.692	2024-01-18
-0.924	0.397	-9.748	-0.084763	-0.524758	-0.379825	-2.241877	-5.475810	6.075566	360.921	00:06:00.706	2024-01-18
-0.979	0.402	-9.742	-0.063438	-0.350000	-0.241912	-2.242589	-5.481929	6.072019	360.935	00:06:00.720	2024-01-18
-0.988	0.398	-9.755	0.052484	-0.029972	-0.019306	-2.241435	-5.481435	6.073064	360.949	00:06:00.734	2024-01-18
-0.969	0.378	-9.740	0.078392	0.324280	0.209310	-2.240038	-5.477968	6.075259	360.963	00:06:00.748	2024-01-18
-0.933	0.396	-9.744	0.169689	0.461090	0.223151	-2.238248	-5.472183	6.078044	360.977	00:06:00.762	2024-01-18
-0.891	0.408	-9.749	0.210289	0.457943	0.109289	-2.235178	-5.465876	6.079183	360.991	00:06:00.776	2024-01-18
-0.861	0.411	-9.745	0.142119	0.442348	0.018025	-2.233091	-5.461604	6.079613	361.005	00:06:00.790	2024-01-18
-0.847	0.382	-9.739	0.117118	0.166949	-0.006970	-2.231837	-5.459940	6.078891	361.019	00:06:00.804	2024-01-18
-0.854	0.382	-9.744	0.052162	0.003265	-0.081589	-2.231686	-5.462767	6.075991	361.033	00:06:00.818	2024-01-18
-0.884	0.379	-9.748	-0.020549	-0.137357	-0.177030	-2.231534	-5.465594	6.073092	361.047	00:06:00.832	2024-01-18
-0.917	0.383	-9.750	0.004257	-0.206022	-0.167627	-2.231341	-5.468623	6.071534	361.061	00:06:00.846	2024-01-18
-0.933	0.378	-9.745	0.050667	-0.157607	0.041127	-2.231098	-5.471921	6.071770	361.075	00:06:00.860	2024-01-18
-0.921	0.369	-9.739	-0.036104	-0.034616	0.086704	-2.231701	-5.472469	6.073039	361.089	00:06:00.874	2024-01-18
-0.905	0.369	-9.748	-0.162060	-0.007026	0.073144	-2.233297	-5.473647	6.074408	361.103	00:06:00.888	2024-01-18
-0.874	0.390	-9.739	-0.180237	-0.073933	0.096397	-2.235735	-5.475570	6.075663	361.117	00:06:00.902	2024-01-18
-0.881	0.397	-9.743	-0.183539	-0.215319	0.017102	-2.238755	-5.479141	6.075760	361.131	00:06:00.916	2024-01-18
-0.900	0.399	-9.742	-0.101515	-0.277191	-0.130763	-2.240302	-5.483477	6.074569	361.145	00:06:00.930	2024-01-18
-0.921	0.405	-9.746	-0.098717	-0.238849	-0.134643	-2.240194	-5.486175	6.072745	361.159	00:06:00.944	2024-01-18
-0.928	0.404	-9.752	-0.065823	-0.131075	-0.137033	-2.237417	-5.484018	6.070619	361.173	00:06:00.958	2024-01-18
-0.919	0.396	-9.751	-0.022430	-0.053900	-0.167506	-2.234641	-5.481860	6.068493	361.187	00:06:00.972	2024-01-18
-0.909	0.389	-9.750	0.020963	0.023275	-0.197979	-2.231865	-5.479702	6.066371	361.201	00:06:00.986	2024-01-18
-0.900	0.381	-9.749	0.064356	0.100450	-0.228451	-2.229089	-5.477544	6.064247	361.215	00:06:01.000	2024-01-18
-0.890	0.373	-9.748	0.107750	0.177625	-0.258924	-2.226313	-5.475386	6.062122	361.229	00:06:01.014	2024-01-18
-0.881	0.365	-9.747	0.151143	0.254801	-0.289396	-2.223537	-5.473227	6.059998	361.243	00:06:01.028	2024-01-18
-0.875	0.361	-9.746	0.167192	0.320664	-0.323267	-2.221000	-5.471040	6.057540	361.257	00:06:01.042	2024-01-18
-0.891	0.376	-9.748	0.047941	0.249686	-0.322836	-2.219896	-5.468675	6.053073	361.271	00:06:01.056	2024-01-18
-0.905	0.382	-9.735	0.041952	0.175556	-0.197686	-2.219324	-5.466351	6.051151	361.285	00:06:01.070	2024-01-18
-0.916	0.369	-9.745	0.005201	0.263706	0.027491	-2.219368	-5.463800	6.051264	361.299	00:06:01.084	2024-01-18
-0.909	0.376	-9.743	-0.040746	0.298860	0.196650	-2.220417	-5.460643	6.053911	361.313	00:06:01.098	2024-01-18
-0.877	0.380	-9.741	-0.103148	0.244666	0.186314	-2.221507	-5.458391	6.055513	361.327	00:06:01.112	2024-01-18
-0.867	0.396	-9.751	-0.051748	0.134730	-0.010170	-2.221939	-5.457146	6.055425	361.341	00:06:01.126	2024-01-18
-0.877	0.415	-9.744	0.012627	0.065302	-0.199664	-2.221486	-5.457042	6.053316	361.355	00:06:01.140	2024-01-18
-0.880	0.418	-9.745	0.130850	-0.042447	-0.108131	-2.219471	-5.458519	6.052170	361.369	00:06:01.154	2024-01-18
-0.890	0.400	-9.747	0.093333	-0.073635	-0.069976	-2.218769	-5.460689	6.051535	361.383	00:06:01.168	2024-01-18
-0.901	0.390	-9.752	0.022192	-0.103566	-0.047985	-2.219052	-5.463379	6.051285	361.397	00:06:01.182	2024-01-18
-0.912	0.380	-9.758	-0.048950	-0.133497	-0.025994	-2.219335	-5.466069	6.051033	361.411	00:06:01.196	2024-01-18
-0.924	0.403	-9.738	-0.062465	-0.115731	-0.086853	-2.218787	-5.467949	6.050365	361.425	00:06:01.210	2024-01-18
-0.914	0.413	-9.733	0.142145	0.022294	-0.033676	-2.217234	-5.468829	6.050036	361.439	00:06:01.224	2024-01-18
-0.921	0.407	-9.736	0.249501	0.070574	0.080879	-2.213999	-5.468013	6.050977	361.453	00:06:01.238	2024-01-18
-0.927	0.365	-9.737	0.159718	0.136594	0.117316	-2.212457	-5.466562	6.051792	361.467	00:06:01.252	2024-01-18
-0.923	0.362	-9.751	0.068640	0.198937	-0.003650	-2.211362	-5.464148	6.051939	361.481	00:06:01.266	2024-01-18
-0.915	0.381	-9.763	0.058131	0.300217	-0.074286	-2.210487	-5.460588	6.051223	361.495	00:06:01.280	2024-01-18
-0.917	0.384	-9.754	0.091351	0.418284	0.002562	-2.208883	-5.455643	6.051489	361.509	00:06:01.294	2024-01-18
-0.885	0.381	-9.746	0.143928	0.420098	0.155362	-2.208678	-5.454520	6.052188	361.523	00:06:01.308	2024-01-18
-0.888	0.384	-9.745	0.114889	0.315629	0.140071	-2.209523	-5.456262	6.053215	361.537	00:06:01.322	2024-01-18
-0.898	0.390	-9.745	0.074969	0.207908	0.103045	-2.210368	-5.458003	6.054242	361.551	00:06:01.336	2024-01-18
-0.908	0.397	-9.745	0.035049	0.100186	0.066019	-2.211212	-5.459745	6.055268	361.565	00:06:01.350	2024-01-18
-0.918	0.403	-9.744	-0.004871	-0.007535	0.028993	-2.212058	-5.461487	6.056295	361.579	00:06:01.364	2024-01-18
-0.928	0.409	-9.744	-0.044792	-0.115256	-0.008033	-2.212902	-5.463229	6.057321	361.593	00:06:01.378	2024-01-18
-0.937	0.411	-9.742	-0.059813	-0.186785	-0.035262	-2.213746	-5.464971	6.058346	361.607	00:06:01.392	2024-01-18
-0.954	0.398	-9.738	0.084202	-0.003267	-0.058262	-2.213272	-5.465282	6.058949	361.621	00:06:01.406	2024-01-18
-0.946	0.390	-9.737	0.147761	0.198712	0.009616	-2.211037	-5.463684	6.058986	361.635	00:06:01.420	2024-01-18
-0.917	0.377	-9.748	0.127319	0.301757	0.043915	-2.209272	-5.459924	6.059358	361.649	00:06:01.434	2024-01-18
-0.894	0.378	-9.748	0.066573	0.296159	-0.016669	-2.208155	-5.456480	6.059104	361.663	00:06:01.448	2024-01-18
-0.885	0.388	-9.744	0.031051	0.264145	-0.058587	-2.207471	-5.453425	6.058119	361.677	00:06:01.462	2024-01-18
-0.900	0.387	-9.748	0.029440	0.194518	-0.164946	-2.206464	-5.451302	6.055546	361.691	00:06:01.476	2024-01-18
-0.916	0.387	-9.745	0.113808	0.259259	-0.169934	-2.204818	-5.448736	6.053778	361.705	00:06:01.490	2024-01-18
-0.898	0.388	-9.740	0.144272	0.251559	-0.039791	-2.203086	-5.446096	6.052880	361.719	00:06:01.504	2024-01-18
-0.886	0.371	-9.736	0.099893	0.230511	0.039120	-2.201785	-5.443712	6.053365	361.733	00:06:01.518	2024-01-18
-0.884	0.373	-9.741	0.068493	0.136587	-0.007505	-2.200815	-5.444124	6.052540	361.747	00:06:01.532	2024-01-18
-0.882	0.378	-9.748	0.045843	0.028393	-0.066541	-2.199901	-5.445004	6.051496	361.761	00:06:01.546	2024-01-18
-0.896	0.374	-9.744	0.004149	-0.074371	-0.114996	-2.198988	-5.445882	6.050453	361.775	00:06:01.560	2024-01-18
-0.912	0.362	-9.750	0.003886	-0.001292	-0.115106	-2.199045	-5.446366	6.049754	361.789	00:06:01.574	2024-01-18
-0.912	0.346	-9.740	0.010712	0.044131	0.093103	-2.199844	-5.446243	6.051879	361.803	00:06:01.588	2024-01-18
-0.900	0.345	-9.752	-0.129520	0.073353	0.380816	-2.201772	-5.446032	6.056294	361.817	00:06:01.602	2024-01-18
-0.857	0.359	-9.757	-0.327485	-0.075469	0.377108	-2.207126	-5.448027	6.061702	361.831	00:06:01.616	2024-01-18
-0.843	0.369	-9.744	-0.377400	-0.301507	0.176822	-2.212171	-5.453228	6.063541	361.845	00:06:01.630	2024-01-18
-0.850	0.401	-9.737	-0.319685	-0.475199	-0.079547	-2.216542	-5.460382	6.063292	361.859	00:06:01.644	2024-01-18
-0.893	0.415	-9.737	-0.243393	-0.598711	-0.170068	-2.219535	-5.469216	6.061396	361.873	00:06:01.658	2024-01-18
-0.903	0.417	-9.739	-0.132765	-0.433554	-0.159089	-2.218372	-5.470691	6.059668	361.887	00:06:01.672	2024-01-18
-0.907	0.420	-9.740	-0.018816	-0.230747	-0.137645	-2.216516	-5.470938	6.057971	361.901	00:06:01.686	2024-01-18
-0.911	0.423	-9.740	0.095133	-0.027940	-0.116201	-2.214660	-5.471185	6.056272	361.915	00:06:01.700	2024-01-18
-0.915	0.426	-9.741	0.209083	0.174867	-0.094756	-2.212804	-5.471431	6.054575	361.929	00:06:01.714	2024-01-18
-0.919	0.429	-9.742	0.323032	0.377674	-0.073312	-2.210948	-5.471678	6.052877	361.943	00:06:01.728	2024-01-18
-0.919	0.426	-9.741	0.425294	0.570306	-0.059832	-2.208361	-5.470695	6.051040	361.957	00:06:01.742	2024-01-18
-0.902	0.400	-9.737	0.475838	0.626560	-0.148498	-2.201387	-5.462334	6.048367	361.971	00:06:01.756	2024-01-18
-0.902	0.350	-9.750	0.511043	0.542189	-0.216348	-2.194951	-5.455446	6.044740	361.985	00:06:01.770	2024-01-18
-0.888	0.339	-9.730	0.367984	0.495474	-0.315995	-2.189224	-5.449617	6.040281	361.999	00:06:01.784	2024-01-18
-0.892	0.317	-9.768	0.263614	0.421742	-0.380949	-2.184727	-5.444957	6.034698	362.013	00:06:01.798	2024-01-18
-0.900	0.330	-9.757	0.124519	0.412077	-0.496308	-2.182772	-5.440240	6.027901	362.027	00:06:01.812	2024-01-18
-0.917	0.341	-9.750	0.007996	0.423652	-0.410358	-2.182661	-5.434951	6.023194	362.041	00:06:01.826	2024-01-18
-0.908	0.371	-9.747	-0.194188	0.519282	-0.015709	-2.184443	-5.428913	6.021546	362.055	00:06:01.840	2024-01-18
-0.887	0.390	-9.753	-0.151337	0.481106	0.358852	-2.187343	-5.423551	6.028333	362.069	00:06:01.854	2024-01-18
-0.838	0.389	-9.748	-0.191243	0.254809	0.724923	-2.190201	-5.426829	6.034164	362.083	00:06:01.868	2024-01-18
-0.819	0.377	-9.740	-0.198257	-0.182381	0.532532	-2.193029	-5.436589	6.039283	362.097	00:06:01.882	2024-01-18
-0.807	0.360	-9.735	-0.179965	-0.649611	0.260495	-2.195858	-5.446349	6.044401	362.111	00:06:01.896	2024-01-18
-0.794	0.344	-9.731	-0.161673	-1.116841	-0.011542	-2.198687	-5.456108	6.049520	362.125	00:06:01.910	2024-01-18
-0.876	0.371	-9.735	-0.416583	-1.341123	-0.237068	-2.202768	-5.468347	6.052494	362.139	00:06:01.924	2024-01-18
-0.959	0.408	-9.738	-0.549277	-1.223854	-0.225836	-2.209978	-5.486783	6.050112	362.153	00:06:01.938	2024-01-18
-1.023	0.443	-9.764	-0.453271	-0.941855	-0.149761	-2.214988	-5.498645	6.048656	362.167	00:06:01.952	2024-01-18
-1.057	0.444	-9.761	-0.168425	-0.354370	-0.068292	-2.216829	-5.503714	6.048553	362.181	00:06:01.966	2024-01-18
-1.060	0.433	-9.758	0.205919	0.310851	0.135136	-2.214934	-5.501189	6.050051	362.195	00:06:01.980	2024-01-18
-1.012	0.404	-9.736	0.389234	0.907618	0.304532	-2.209431	-5.487004	6.054469	362.209	00:06:01.994	2024-01-18
-0.929	0.383	-9.728	0.543470	1.161949	0.401868	-2.202632	-5.471860	6.058607	362.223	00:06:02.008	2024-01-18
-0.859	0.357	-9.716	0.541213	1.120041	0.286055	-2.195724	-5.458320	6.062054	362.237	00:06:02.022	2024-01-18
-0.860	0.355	-9.720	0.426989	0.817879	0.288647	-2.193981	-5.458720	6.062595	362.251	00:06:02.036	2024-01-18
-0.861	0.353	-9.723	0.312764	0.515716	0.291240	-2.192238	-5.459122	6.063134	362.265	00:06:02.050	2024-01-18
-0.862	0.350	-9.727	0.198539	0.213554	0.293832	-2.190497	-5.459523	6.063675	362.279	00:06:02.064	2024-01-18
-0.863	0.348	-9.730	0.084314	-0.088609	0.296425	-2.188754	-5.459923	6.064214	362.293	00:06:02.078	2024-01-18
-0.863	0.345	-9.734	-0.029910	-0.390771	0.299017	-2.187011	-5.460326	6.064753	362.307	00:06:02.092	2024-01-18
-0.854	0.347	-9.727	-0.161151	-0.668771	0.288272	-2.188020	-5.466072	6.066247	362.321	00:06:02.106	2024-01-18
-0.857	0.355	-9.756	-0.341543	-0.908823	0.134988	-2.192698	-5.478950	6.069013	362.335	00:06:02.120	2024-01-18
-0.904	0.378	-9.761	-0.474446	-0.931267	-0.060629	-2.198836	-5.492467	6.068241	362.349	00:06:02.134	2024-01-18
-0.974	0.402	-9.757	-0.331843	-0.801718	-0.136480	-2.203796	-5.502400	6.067733	362.363	00:06:02.148	2024-01-18
-1.019	0.392	-9.752	-0.296159	-0.354967	-0.004963	-2.207659	-5.508376	6.067793	362.377	00:06:02.162	2024-01-18
-1.021	0.417	-9.730	-0.187671	0.104798	0.153003	-2.210250	-5.506758	6.070069	362.391	00:06:02.176	2024-01-18
-0.965	0.419	-9.733	-0.159077	0.446877	0.264506	-2.211549	-5.501587	6.072737	362.405	00:06:02.190	2024-01-18
-0.910	0.415	-9.748	0.017723	0.487270	0.163507	-2.211579	-5.495436	6.074588	362.419	00:06:02.204	2024-01-18
-0.863	0.413	-9.752	0.129853	0.396514	-0.063871	-2.209732	-5.490387	6.074001	362.433	00:06:02.218	2024-01-18
-0.871	0.404	-9.757	0.221538	0.296211	-0.223973	-2.206430	-5.487496	6.071076	362.447	00:06:02.232	2024-01-18
-0.891	0.389	-9.743	0.194777	0.287313	-0.231921	-2.202886	-5.484966	6.067762	362.461	00:06:02.246	2024-01-18
-0.912	0.373	-9.730	0.168016	0.278414	-0.239869	-2.199342	-5.482435	6.064448	362.475	00:06:02.260	2024-01-18
-0.901	0.365	-9.740	0.117238	0.168732	-0.137511	-2.198062	-5.481159	6.062764	362.489	00:06:02.274	2024-01-18
-0.892	0.369	-9.746	0.048080	0.155221	-0.120577	-2.196504	-5.480634	6.061459	362.503	00:06:02.288	2024-01-18
-0.878	0.377	-9.751	0.133915	0.047455	-0.032865	-2.194921	-5.480799	6.060869	362.517	00:06:02.302	2024-01-18
-0.884	0.374	-9.748	0.090565	-0.012281	0.121819	-2.194435	-5.481722	6.062833	362.531	00:06:02.316	2024-01-18
-0.863	0.355	-9.734	-0.000449	-0.100958	0.200929	-2.195429	-5.484442	6.065773	362.545	00:06:02.330	2024-01-18
-0.873	0.348	-9.741	-0.188965	-0.271398	0.227114	-2.198050	-5.488847	6.069165	362.559	00:06:02.344	2024-01-18
-0.879	0.361	-9.740	-0.326040	-0.450784	0.196412	-2.203260	-5.495662	6.072719	362.573	00:06:02.358	2024-01-18
-0.891	0.349	-9.756	-0.458955	-0.615242	0.220391	-2.210090	-5.504251	6.076285	362.587	00:06:02.372	2024-01-18
-0.905	0.360	-9.755	-0.394899	-0.611077	0.139491	-2.216257	-5.513526	6.078494	362.601	00:06:02.386	2024-01-18
-0.919	0.371	-9.754	-0.330843	-0.606912	0.058591	-2.221174	-5.523326	6.078882	362.615	00:06:02.400	2024-01-18
-0.933	0.382	-9.754	-0.266787	-0.602747	-0.022310	-2.226091	-5.533126	6.079272	362.629	00:06:02.414	2024-01-18
-0.947	0.393	-9.753	-0.202731	-0.598582	-0.103210	-2.231010	-5.542926	6.079662	362.643	00:06:02.428	2024-01-18
-0.961	0.404	-9.752	-0.138675	-0.594418	-0.184110	-2.235928	-5.552726	6.080056	362.657	00:06:02.442	2024-01-18
-0.975	0.415	-9.751	-0.074619	-0.590253	-0.265011	-2.240845	-5.562527	6.080446	362.671	00:06:02.456	2024-01-18
-0.988	0.426	-9.750	-0.010564	-0.586088	-0.345911	-2.245764	-5.572326	6.080838	362.685	00:06:02.470	2024-01-18
-1.016	0.411	-9.750	0.012737	-0.214687	-0.305493	-2.248658	-5.578716	6.080173	362.699	00:06:02.484	2024-01-18
-1.033	0.415	-9.749	0.120259	0.221565	-0.249835	-2.246491	-5.576578	6.076853	362.713	00:06:02.498	2024-01-18
-0.997	0.411	-9.745	0.192107	0.608403	-0.077544	-2.243292	-5.568523	6.075483	362.727	00:06:02.512	2024-01-18
-0.954	0.403	-9.744	0.246777	0.816176	-0.040238	-2.239800	-5.558714	6.074903	362.741	00:06:02.526	2024-01-18
-0.893	0.379	-9.751	0.261064	0.785397	0.060952	-2.236145	-5.547882	6.074943	362.755	00:06:02.540	2024-01-18
-0.861	0.373	-9.752	0.190410	0.612539	-0.046858	-2.233985	-5.540983	6.073621	362.769	00:06:02.554	2024-01-18
-0.845	0.382	-9.742	0.087590	0.321635	-0.153185	-2.232903	-5.537526	6.071487	362.783	00:06:02.568	2024-01-18
-0.870	0.362	-9.740	-0.005033	0.101928	-0.222522	-2.232871	-5.536971	6.068783	362.797	00:06:02.582	2024-01-18
-0.897	0.362	-9.738	-0.111647	-0.009576	-0.200829	-2.234285	-5.538346	6.066291	362.811	00:06:02.596	2024-01-18
-0.890	0.362	-9.735	-0.200137	-0.120704	-0.049270	-2.237140	-5.541364	6.066650	362.825	00:06:02.610	2024-01-18
-0.880	0.359	-9.738	-0.308847	-0.246846	0.148637	-2.241290	-5.545871	6.068972	362.839	00:06:02.624	2024-01-18
-0.863	0.360	-9.751	-0.355740	-0.442140	0.308439	-2.247232	-5.552455	6.073342	362.853	00:06:02.638	2024-01-18
-0.876	0.385	-9.743	-0.424847	-0.629605	0.195430	-2.253711	-5.561908	6.076266	362.867	00:06:02.652	2024-01-18
-0.901	0.397	-9.742	-0.480214	-0.699781	0.093869	-2.260138	-5.572212	6.078209	362.881	00:06:02.666	2024-01-18
-0.934	0.404	-9.736	-0.409944	-0.747534	0.063250	-2.266379	-5.583010	6.079169	362.895	00:06:02.680	2024-01-18
-0.962	0.415	-9.742	-0.429492	-0.598507	-0.073087	-2.271711	-5.591449	6.078123	362.909	00:06:02.694	2024-01-18
-0.963	0.411	-9.741	-0.320956	-0.445525	-0.121889	-2.275461	-5.597974	6.077557	362.923	00:06:02.708	2024-01-18
-0.977	0.422	-9.731	-0.173699	-0.314987	-0.048187	-2.277913	-5.602420	6.077841	362.937	00:06:02.722	2024-01-18
-0.965	0.419	-9.732	-0.173722	-0.310516	-0.017020	-2.279694	-5.603011	6.081039	362.951	00:06:02.736	2024-01-18
-0.953	0.417	-9.733	-0.173745	-0.306045	0.014147	-2.281475	-5.603601	6.084239	362.965	00:06:02.750	2024-01-18
-0.941	0.414	-9.733	-0.173768	-0.301575	0.045314	-2.283256	-5.604192	6.087438	362.979	00:06:02.764	2024-01-18
-0.929	0.411	-9.734	-0.173791	-0.297104	0.076482	-2.285037	-5.604781	6.090638	362.993	00:06:02.778	2024-01-18
-0.917	0.408	-9.735	-0.173815	-0.292633	0.107649	-2.286818	-5.605371	6.093837	363.007	00:06:02.792	2024-01-18
-0.905	0.406	-9.736	-0.173838	-0.288162	0.138816	-2.288600	-5.605962	6.097038	363.021	00:06:02.806	2024-01-18
-0.893	0.403	-9.737	-0.173861	-0.283692	0.169983	-2.290381	-5.606551	6.100237	363.035	00:06:02.820	2024-01-18
-0.885	0.411	-9.735	-0.120952	-0.482832	0.067530	-2.291717	-5.614878	6.101289	363.049	00:06:02.834	2024-01-18
-0.911	0.376	-9.748	-0.095105	-0.636581	-0.000676	-2.293855	-5.623830	6.102427	363.063	00:06:02.848	2024-01-18
-0.963	0.373	-9.749	-0.209396	-0.563325	0.079235	-2.296803	-5.632722	6.103811	363.077	00:06:02.862	2024-01-18
-0.979	0.386	-9.751	-0.278892	-0.393609	0.154789	-2.301024	-5.638444	6.106290	363.091	00:06:02.876	2024-01-18
-0.959	0.404	-9.742	-0.297962	-0.227972	0.263576	-2.304541	-5.642199	6.110589	363.105	00:06:02.890	2024-01-18
-0.943	0.406	-9.734	-0.180485	-0.172805	0.338032	-2.307822	-5.645217	6.115284	363.119	00:06:02.904	2024-01-18
-0.934	0.394	-9.730	-0.208425	-0.195934	0.255922	-2.311219	-5.648358	6.119148	363.133	00:06:02.918	2024-01-18
-0.935	0.389	-9.746	-0.243303	-0.230327	0.165084	-2.315062	-5.651952	6.121400	363.147	00:06:02.932	2024-01-18
-0.940	0.403	-9.744	-0.303521	-0.197687	0.111254	-2.319089	-5.655289	6.123384	363.161	00:06:02.946	2024-01-18
-0.954	0.423	-9.746	-0.226860	-0.160029	0.134221	-2.323264	-5.658181	6.125372	363.175	00:06:02.960	2024-01-18
-0.945	0.428	-9.747	-0.179740	-0.168845	0.130869	-2.325553	-5.661324	6.127137	363.189	00:06:02.974	2024-01-18
-0.953	0.428	-9.741	-0.132018	-0.117248	-0.022129	-2.326759	-5.663701	6.126661	363.203	00:06:02.988	2024-01-18
-0.956	0.424	-9.736	-0.025005	-0.024808	-0.205786	-2.326865	-5.665049	6.124176	363.217	00:06:03.002	2024-01-18
-0.982	0.434	-9.735	0.061601	0.116279	-0.306838	-2.325261	-5.663691	6.119716	363.231	00:06:03.016	2024-01-18
-1.001	0.398	-9.741	0.201090	0.322432	-0.273086	-2.322437	-5.659644	6.116673	363.245	00:06:03.030	2024-01-18
-0.990	0.399	-9.736	0.227502	0.517002	-0.039389	-2.319292	-5.653666	6.115715	363.259	00:06:03.044	2024-01-18
-0.951	0.395	-9.744	0.199101	0.635665	0.218345	-2.316561	-5.645545	6.118550	363.273	00:06:03.058	2024-01-18
-0.907	0.381	-9.755	0.131937	0.563774	0.231212	-2.315084	-5.638675	6.120690	363.287	00:06:03.072	2024-01-18
-0.895	0.389	-9.741	0.087626	0.450873	0.120858	-2.314581	-5.635357	6.121496	363.301	00:06:03.086	2024-01-18
-0.895	0.389	-9.744	0.043529	0.353239	0.126223	-2.315099	-5.636492	6.120684	363.315	00:06:03.100	2024-01-18
-0.896	0.389	-9.746	-0.000567	0.255606	0.131588	-2.315617	-5.637625	6.119871	363.329	00:06:03.114	2024-01-18
-0.897	0.389	-9.749	-0.044663	0.157972	0.136953	-2.316135	-5.638760	6.119057	363.343	00:06:03.128	2024-01-18
-0.898	0.389	-9.751	-0.088760	0.060339	0.142318	-2.316653	-5.639894	6.118244	363.357	00:06:03.142	2024-01-18
-0.899	0.389	-9.754	-0.132856	-0.037295	0.147683	-2.317171	-5.641030	6.117430	363.371	00:06:03.156	2024-01-18
-0.900	0.389	-9.756	-0.176952	-0.134929	0.153048	-2.317689	-5.642164	6.116617	363.385	00:06:03.170	2024-01-18
-0.899	0.394	-9.733	-0.165330	-0.299231	-0.025662	-2.318144	-5.644826	6.115237	363.399	00:06:03.184	2024-01-18
-0.946	0.398	-9.735	-0.041698	-0.430816	-0.237954	-2.318438	-5.651310	6.112440	363.413	00:06:03.198	2024-01-18
-0.986	0.383	-9.749	-0.016626	-0.235737	-0.243361	-2.319085	-5.654792	6.110062	363.427	00:06:03.212	2024-01-18
-1.001	0.389	-9.760	-0.122631	-0.003924	-0.051145	-2.320387	-5.655457	6.109304	363.441	00:06:03.226	2024-01-18
-0.988	0.407	-9.741	-0.143624	0.240268	0.115446	-2.322485	-5.653034	6.110613	363.455	00:06:03.240	2024-01-18
-0.956	0.416	-9.735	-0.098817	0.393127	0.171567	-2.323686	-5.648065	6.113308	363.469	00:06:03.254	2024-01-18
-0.926	0.420	-9.733	-0.028374	0.392105	0.265466	-2.324257	-5.643486	6.115720	363.483	00:06:03.268	2024-01-18
-0.915	0.413	-9.736	0.014501	0.292421	0.088330	-2.324091	-5.639564	6.117261	363.497	00:06:03.282	2024-01-18
-0.908	0.422	-9.750	0.100783	0.196435	-0.134667	-2.322323	-5.637840	6.114828	363.511	00:06:03.296	2024-01-18
-0.931	0.416	-9.751	0.116304	0.194348	-0.380870	-2.318345	-5.634972	6.110735	363.525	00:06:03.310	2024-01-18
-0.952	0.409	-9.749	0.291530	0.277366	-0.336637	-2.313485	-5.631649	6.105983	363.539	00:06:03.324	2024-01-18
-0.970	0.404	-9.738	0.390912	0.385191	-0.316432	-2.308624	-5.628325	6.101229	363.553	00:06:03.338	2024-01-18
-0.937	0.403	-9.736	0.310811	0.417360	-0.104473	-2.304833	-5.623079	6.100833	363.567	00:06:03.352	2024-01-18
-0.895	0.397	-9.745	0.199100	0.416333	0.187849	-2.302571	-5.618784	6.102757	363.581	00:06:03.366	2024-01-18
-0.877	0.379	-9.727	-0.010850	0.191341	0.301967	-2.302109	-5.616185	6.106805	363.595	00:06:03.380	2024-01-18
-0.895	0.375	-9.732	-0.048560	-0.042886	0.112079	-2.303511	-5.618151	6.107978	363.609	00:06:03.394	2024-01-18
-0.912	0.380	-9.746	-0.129580	-0.184139	-0.047256	-2.304606	-5.621218	6.107793	363.623	00:06:03.408	2024-01-18
-0.938	0.402	-9.752	-0.055578	-0.210526	-0.093290	-2.305287	-5.624899	6.106650	363.637	00:06:03.422	2024-01-18
-0.952	0.421	-9.748	0.000640	-0.125962	-0.089585	-2.304874	-5.627302	6.105876	363.651	00:06:03.436	2024-01-18
-0.949	0.426	-9.743	0.017905	-0.011423	-0.058779	-2.303954	-5.626178	6.106171	363.665	00:06:03.450	2024-01-18
-0.952	0.421	-9.750	0.009578	0.088960	-0.015244	-2.302830	-5.623644	6.106893	363.679	00:06:03.464	2024-01-18
-0.955	0.417	-9.756	0.001251	0.189344	0.028292	-2.301705	-5.621110	6.107614	363.693	00:06:03.478	2024-01-18
-0.958	0.413	-9.763	-0.007075	0.289728	0.071827	-2.300581	-5.618576	6.108336	363.707	00:06:03.492	2024-01-18
-0.962	0.409	-9.770	-0.015402	0.390111	0.115362	-2.299457	-5.616042	6.109057	363.721	00:06:03.506	2024-01-18
-0.965	0.404	-9.776	-0.023729	0.490495	0.158897	-2.298333	-5.613508	6.109780	363.735	00:06:03.520	2024-01-18
-0.940	0.409	-9.764	-0.021436	0.548232	0.199112	-2.297209	-5.610974	6.110504	363.749	00:06:03.534	2024-01-18
-0.876	0.434	-9.725	0.102626	0.418568	0.159576	-2.295099	-5.608602	6.111645	363.763	00:06:03.548	2024-01-18
-0.867	0.403	-9.741	0.237654	0.142528	0.086392	-2.292374	-5.607032	6.112733	363.777	00:06:03.562	2024-01-18
-0.888	0.380	-9.729	0.155959	-0.105210	-0.060308	-2.290400	-5.609540	6.111603	363.791	00:06:03.576	2024-01-18
-0.910	0.377	-9.764	-0.014415	-0.181862	-0.254900	-2.290361	-5.612440	6.108826	363.805	00:06:03.590	2024-01-18
-0.947	0.397	-9.738	-0.048765	-0.149307	-0.272963	-2.290439	-5.615046	6.105325	363.819	00:06:03.604	2024-01-18
-0.982	0.408	-9.746	0.078664	-0.028172	-0.268916	-2.288879	-5.616525	6.101661	363.833	00:06:03.618	2024-01-18
-1.004	0.395	-9.744	0.073618	0.216991	-0.144539	-2.287500	-5.613542	6.099824	363.847	00:06:03.632	2024-01-18
-0.978	0.412	-9.725	0.153848	0.424918	-0.040998	-2.285383	-5.608552	6.099130	363.861	00:06:03.646	2024-01-18
-0.958	0.417	-9.752	0.234404	0.551174	0.040018	-2.282239	-5.601880	6.099554	363.875	00:06:03.660	2024-01-18
-0.924	0.419	-9.746	0.243713	0.583449	-0.055618	-2.277694	-5.594139	6.096581	363.889	00:06:03.674	2024-01-18
-0.929	0.400	-9.741	0.329471	0.562955	-0.221440	-2.273151	-5.586398	6.093610	363.903	00:06:03.688	2024-01-18
-0.931	0.387	-9.746	0.298426	0.629960	-0.321460	-2.268534	-5.578650	6.090125	363.917	00:06:03.702	2024-01-18
-0.918	0.382	-9.744	0.291530	0.628615	-0.448910	-2.263479	-5.570868	6.083560	363.931	00:06:03.716	2024-01-18
-0.913	0.383	-9.756	0.320136	0.540684	-0.403556	-2.258086	-5.564221	6.078243	363.945	00:06:03.730	2024-01-18
-0.910	0.383	-9.738	0.412914	0.517860	-0.280314	-2.252367	-5.558238	6.074127	363.959	00:06:03.744	2024-01-18
-0.921	0.372	-9.733	0.438993	0.479764	-0.148637	-2.246171	-5.552774	6.071759	363.973	00:06:03.758	2024-01-18
-0.936	0.340	-9.744	0.267287	0.464091	-0.025630	-2.242569	-5.546701	6.070930	363.987	00:06:03.772	2024-01-18
-0.911	0.358	-9.736	0.138830	0.489236	-0.009236	-2.240582	-5.540956	6.071108	364.001	00:06:03.786	2024-01-18
-0.898	0.371	-9.737	0.045647	0.405149	0.111273	-2.240171	-5.535783	6.072282	364.015	00:06:03.800	2024-01-18
-0.903	0.376	-9.740	0.001151	0.285311	0.109799	-2.241896	-5.538002	6.074564	364.029	00:06:03.814	2024-01-18
-0.908	0.382	-9.742	-0.043345	0.165472	0.108326	-2.243620	-5.540221	6.076842	364.043	00:06:03.828	2024-01-18
-0.912	0.387	-9.745	-0.087842	0.045634	0.106852	-2.245343	-5.542441	6.079120	364.057	00:06:03.842	2024-01-18
-0.917	0.392	-9.748	-0.132338	-0.074204	0.105379	-2.247068	-5.544659	6.081401	364.071	00:06:03.856	2024-01-18
-0.922	0.398	-9.750	-0.176834	-0.194042	0.103905	-2.248793	-5.546878	6.083682	364.085	00:06:03.870	2024-01-18
-0.929	0.400	-9.755	-0.206579	-0.264847	0.095175	-2.250640	-5.549371	6.085577	364.099	00:06:03.884	2024-01-18
-0.929	0.408	-9.759	-0.135537	-0.175870	0.054386	-2.252791	-5.552550	6.086512	364.113	00:06:03.898	2024-01-18
-0.949	0.422	-9.753	-0.085896	-0.004898	-0.027330	-2.253546	-5.552612	6.085705	364.127	00:06:03.912	2024-01-18
-0.941	0.424	-9.738	0.046396	0.106167	-0.162644	-2.252341	-5.551645	6.083705	364.141	00:06:03.926	2024-01-18
-0.969	0.412	-9.740	0.249329	0.203425	-0.233359	-2.248831	-5.550002	6.080497	364.155	00:06:03.940	2024-01-18
-0.960	0.415	-9.736	0.284757	0.314172	-0.230484	-2.244464	-5.545752	6.077342	364.169	00:06:03.954	2024-01-18
-0.945	0.401	-9.750	0.380044	0.438352	-0.217824	-2.239046	-5.540403	6.074215	364.183	00:06:03.968	2024-01-18
-0.933	0.371	-9.754	0.395051	0.524424	-0.186941	-2.232924	-5.534063	6.071309	364.197	00:06:03.982	2024-01-18
-0.924	0.373	-9.753	0.401548	0.571142	-0.128522	-2.227307	-5.526736	6.069630	364.211	00:06:03.996	2024-01-18
-0.907	0.374	-9.747	0.373552	0.577146	-0.103915	-2.222468	-5.519555	6.067966	364.225	00:06:04.010	2024-01-18
-0.898	0.374	-9.745	0.326502	0.548950	-0.122837	-2.217939	-5.512434	6.066306	364.239	00:06:04.024	2024-01-18
-0.888	0.374	-9.743	0.279451	0.520755	-0.141759	-2.213411	-5.505314	6.064649	364.253	00:06:04.038	2024-01-18
-0.884	0.382	-9.736	0.245300	0.401287	-0.148935	-2.209647	-5.500920	6.062689	364.267	00:06:04.052	2024-01-18
-0.903	0.366	-9.743	0.187624	0.333148	-0.169839	-2.206844	-5.497296	6.060366	364.281	00:06:04.066	2024-01-18
-0.914	0.363	-9.732	0.082786	0.263624	-0.206059	-2.205152	-5.494096	6.057625	364.295	00:06:04.080	2024-01-18
-0.910	0.369	-9.748	0.023935	0.237252	-0.124782	-2.205002	-5.491580	6.056818	364.309	00:06:04.094	2024-01-18
-0.897	0.381	-9.742	-0.018709	0.242724	0.155435	-2.205245	-5.489463	6.057990	364.323	00:06:04.108	2024-01-18
-0.878	0.378	-9.740	-0.027635	0.154085	0.170651	-2.205808	-5.487935	6.060379	364.337	00:06:04.122	2024-01-18
-0.876	0.383	-9.755	-0.062806	0.046175	0.080898	-2.206517	-5.488138	6.061162	364.351	00:06:04.136	2024-01-18
-0.878	0.380	-9.758	-0.057574	0.004787	0.035869	-2.205667	-5.489161	6.061117	364.365	00:06:04.150	2024-01-18
-0.884	0.378	-9.757	-0.025435	0.011057	0.025580	-2.204192	-5.490511	6.060738	364.379	00:06:04.164	2024-01-18
-0.890	0.377	-9.756	0.006704	0.017327	0.015290	-2.202718	-5.491863	6.060361	364.393	00:06:04.178	2024-01-18
-0.895	0.375	-9.755	0.038842	0.023598	0.005001	-2.201245	-5.493213	6.059986	364.407	00:06:04.192	2024-01-18
-0.901	0.374	-9.754	0.070981	0.029868	-0.005289	-2.199770	-5.494564	6.059608	364.421	00:06:04.206	2024-01-18
-0.906	0.372	-9.753	0.103120	0.036138	-0.015578	-2.198297	-5.495915	6.059231	364.435	00:06:04.220	2024-01-18
-0.912	0.371	-9.752	0.135258	0.042409	-0.025868	-2.196823	-5.497265	6.058854	364.449	00:06:04.234	2024-01-18
-0.939	0.382	-9.755	0.070620	0.091987	-0.131993	-2.195706	-5.497056	6.058044	364.463	00:06:04.248	2024-01-18
-0.935	0.402	-9.739	0.070500	0.185493	-0.064641	-2.194790	-5.495351	6.057243	364.477	00:06:04.262	2024-01-18
-0.932	0.381	-9.735	0.088408	0.289570	0.086787	-2.193457	-5.491692	6.058418	364.491	00:06:04.276	2024-01-18
-0.914	0.366	-9.736	0.118025	0.329551	0.065897	-2.191989	-5.488864	6.059044	364.505	00:06:04.290	2024-01-18
-0.880	0.367	-9.741	0.096174	0.166836	0.032952	-2.190804	-5.487221	6.059201	364.519	00:06:04.304	2024-01-18
-0.850	0.357	-9.743	0.031956	0.019532	-0.040179	-2.190460	-5.487705	6.058739	364.533	00:06:04.318	2024-01-18
-0.865	0.365	-9.738	-0.024471	-0.190611	-0.105600	-2.190909	-5.491427	6.057587	364.547	00:06:04.332	2024-01-18
-0.913	0.373	-9.740	-0.090967	-0.228160	-0.051733	-2.192006	-5.495133	6.057573	364.561	00:06:04.346	2024-01-18
-0.936	0.405	-9.739	-0.121980	-0.172250	0.081992	-2.193793	-5.498097	6.059230	364.575	00:06:04.360	2024-01-18
-0.939	0.392	-9.754	-0.103540	-0.082985	0.198028	-2.194887	-5.498808	6.059800	364.589	00:06:04.374	2024-01-18
-0.932	0.385	-9.751	-0.067645	-0.008636	0.002842	-2.195981	-5.499519	6.060371	364.603	00:06:04.388	2024-01-18
-0.928	0.379	-9.749	-0.041450	0.062061	-0.173589	-2.196829	-5.500010	6.060490	364.617	00:06:04.402	2024-01-18
-0.940	0.387	-9.748	0.010810	0.133091	-0.182686	-2.196200	-5.499185	6.057896	364.631	00:06:04.416	2024-01-18
-0.944	0.395	-9.754	0.125287	0.188206	-0.180169	-2.194219	-5.496187	6.055571	364.645	00:06:04.430	2024-01-18
-0.953	0.394	-9.741	0.184625	0.391426	-0.120469	-2.191485	-5.491387	6.053858	364.659	00:06:04.444	2024-01-18
-0.937	0.422	-9.744	0.231171	0.586422	-0.026500	-2.188220	-5.484246	6.053415	364.673	00:06:04.458	2024-01-18
-0.897	0.391	-9.745	0.260486	0.622665	0.009464	-2.184545	-5.476345	6.052919	364.687	00:06:04.472	2024-01-18
-0.865	0.375	-9.736	0.258291	0.557805	-0.078187	-2.180889	-5.470210	6.051815	364.701	00:06:04.486	2024-01-18
-0.860	0.372	-9.748	0.230385	0.288588	-0.116545	-2.177348	-5.466600	6.049909	364.715	00:06:04.500	2024-01-18
-0.872	0.372	-9.748	0.161289	0.223284	-0.090497	-2.177986	-5.468465	6.050293	364.729	00:06:04.514	2024-01-18
-0.884	0.372	-9.747	0.092192	0.157980	-0.064449	-2.178624	-5.470331	6.050676	364.743	00:06:04.528	2024-01-18
-0.896	0.373	-9.747	0.023096	0.092676	-0.038401	-2.179260	-5.472196	6.051059	364.757	00:06:04.542	2024-01-18
-0.908	0.373	-9.746	-0.046001	0.027372	-0.012353	-2.179898	-5.474061	6.051443	364.771	00:06:04.556	2024-01-18
-0.919	0.374	-9.746	-0.115097	-0.037932	0.013695	-2.180536	-5.475926	6.051828	364.785	00:06:04.570	2024-01-18
-0.931	0.374	-9.745	-0.184193	-0.103236	0.039743	-2.181174	-5.477792	6.052213	364.799	00:06:04.584	2024-01-18
-0.941	0.373	-9.738	-0.221335	-0.085342	0.069347	-2.181811	-5.479657	6.052594	364.813	00:06:04.598	2024-01-18
-0.914	0.387	-9.739	-0.164701	0.009284	0.142969	-2.184231	-5.479700	6.055179	364.827	00:06:04.612	2024-01-18
-0.890	0.377	-9.747	-0.197270	0.079203	0.251241	-2.186836	-5.480157	6.058292	364.841	00:06:04.626	2024-01-18
-0.844	0.394	-9.739	-0.138675	-0.105826	0.191201	-2.189287	-5.481574	6.061615	364.855	00:06:04.640	2024-01-18
-0.858	0.401	-9.746	-0.044020	-0.362330	0.097315	-2.190048	-5.488074	6.062598	364.869	00:06:04.654	2024-01-18
-0.897	0.385	-9.761	-0.069399	-0.481565	-0.097000	-2.190359	-5.494897	6.060989	364.883	00:06:04.668	2024-01-18
-0.950	0.379	-9.746	-0.034943	-0.402833	-0.326721	-2.190198	-5.501210	6.057175	364.897	00:06:04.682	2024-01-18
-1.000	0.406	-9.734	0.001065	-0.114980	-0.422137	-2.189209	-5.503015	6.051750	364.911	00:06:04.696	2024-01-18
-1.029	0.402	-9.750	0.151889	0.322706	-0.193683	-2.186586	-5.498455	6.049564	364.925	00:06:04.710	2024-01-18
-0.996	0.393	-9.751	0.267005	0.688571	-0.004802	-2.182898	-5.490163	6.049137	364.939	00:06:04.724	2024-01-18
-0.930	0.381	-9.748	0.303499	0.828664	0.064591	-2.178186	-5.478907	6.049871	364.953	00:06:04.738	2024-01-18
-0.864	0.374	-9.744	0.330889	0.897657	0.088261	-2.173473	-5.467651	6.050607	364.967	00:06:04.752	2024-01-18
-0.812	0.379	-9.746	0.318898	0.560231	-0.104423	-2.168802	-5.460064	6.049572	364.981	00:06:04.766	2024-01-18
-0.824	0.368	-9.742	0.292760	0.233780	-0.271538	-2.164190	-5.457368	6.046179	364.995	00:06:04.780	2024-01-18
-0.876	0.357	-9.751	0.209283	0.007427	-0.398499	-2.161811	-5.458337	6.040060	365.009	00:06:04.794	2024-01-18
-0.916	0.356	-9.753	0.019934	0.014053	-0.394580	-2.161114	-5.458742	6.035544	365.023	00:06:04.808	2024-01-18
-0.949	0.361	-9.744	-0.120170	0.141081	-0.158357	-2.161925	-5.458305	6.032947	365.037	00:06:04.822	2024-01-18
-0.932	0.363	-9.745	-0.151557	0.247453	0.081563	-2.164209	-5.455355	6.034618	365.051	00:06:04.836	2024-01-18
-0.891	0.375	-9.734	-0.116891	0.281443	0.315167	-2.165767	-5.453010	6.038598	365.065	00:06:04.850	2024-01-18
-0.871	0.386	-9.735	-0.037382	0.166337	0.321130	-2.166642	-5.452342	6.042169	365.079	00:06:04.864	2024-01-18
-0.879	0.387	-9.738	-0.024760	0.131537	0.280747	-2.166536	-5.455258	6.042415	365.093	00:06:04.878	2024-01-18
-0.888	0.389	-9.740	-0.012137	0.096738	0.240364	-2.166430	-5.458174	6.042659	365.107	00:06:04.892	2024-01-18
-0.897	0.391	-9.743	0.000485	0.061939	0.199982	-2.166324	-5.461090	6.042907	365.121	00:06:04.906	2024-01-18
-0.905	0.392	-9.745	0.013108	0.027140	0.159599	-2.166218	-5.464006	6.043151	365.135	00:06:04.920	2024-01-18
-0.914	0.394	-9.748	0.025730	-0.007660	0.119216	-2.166111	-5.466923	6.043396	365.149	00:06:04.934	2024-01-18
-0.923	0.395	-9.750	0.038353	-0.042459	0.078834	-2.166005	-5.469839	6.043640	365.163	00:06:04.948	2024-01-18
-0.919	0.371	-9.740	0.086797	-0.000413	0.017853	-2.165955	-5.472179	6.043690	365.177	00:06:04.962	2024-01-18
-0.927	0.357	-9.742	-0.011528	0.097384	-0.073540	-2.166245	-5.471064	6.042568	365.191	00:06:04.976	2024-01-18
-0.925	0.370	-9.749	-0.074425	0.236040	-0.062147	-2.166509	-5.468653	6.042218	365.205	00:06:04.990	2024-01-18
-0.916	0.390	-9.745	0.025137	0.304189	0.072396	-2.166520	-5.465345	6.042964	365.219	00:06:05.004	2024-01-18
-0.902	0.374	-9.741	0.023732	0.338842	0.166178	-2.165930	-5.461092	6.045686	365.233	00:06:05.018	2024-01-18
-0.890	0.349	-9.727	0.074885	0.246453	0.077727	-2.165139	-5.458727	6.046064	365.247	00:06:05.032	2024-01-18
-0.888	0.354	-9.731	0.046740	0.146244	-0.084868	-2.164453	-5.457591	6.045665	365.261	00:06:05.046	2024-01-18
-0.893	0.357	-9.748	0.022589	0.061427	-0.035302	-2.163949	-5.457672	6.044752	365.275	00:06:05.060	2024-01-18
-0.897	0.380	-9.759	-0.017720	0.004629	0.016430	-2.164259	-5.458231	6.045292	365.289	00:06:05.074	2024-01-18
-0.892	0.399	-9.752	-0.038985	-0.045386	0.132529	-2.165053	-5.459722	6.047698	365.303	00:06:05.088	2024-01-18
-0.880	0.408	-9.744	-0.054644	-0.085758	0.261041	-2.166210	-5.461911	6.051502	365.317	00:06:05.102	2024-01-18
-0.873	0.405	-9.727	-0.063436	-0.167167	0.277830	-2.167367	-5.464099	6.055305	365.331	00:06:05.116	2024-01-18
-0.894	0.379	-9.714	0.075288	-0.255000	0.083375	-2.166229	-5.468041	6.056244	365.345	00:06:05.130	2024-01-18
-0.944	0.364	-9.742	0.154972	-0.237373	-0.159850	-2.163985	-5.471417	6.054633	365.359	00:06:05.144	2024-01-18
-0.970	0.364	-9.758	0.156000	0.057063	-0.362472	-2.161269	-5.471626	6.049512	365.373	00:06:05.158	2024-01-18
-0.996	0.373	-9.763	0.281639	0.379092	-0.474443	-2.155990	-5.465403	6.042805	365.387	00:06:05.172	2024-01-18
-0.997	0.382	-9.752	0.430290	0.848706	-0.400884	-2.149441	-5.455095	6.037368	365.401	00:06:05.186	2024-01-18
-0.955	0.384	-9.735	0.556905	1.119954	-0.176813	-2.141768	-5.440772	6.033981	365.415	00:06:05.200	2024-01-18
-0.895	0.353	-9.732	0.588800	1.092356	0.050982	-2.134092	-5.426799	6.034750	365.429	00:06:05.214	2024-01-18
-0.868	0.344	-9.745	0.456198	0.894985	0.148049	-2.131007	-5.421365	6.035167	365.443	00:06:05.228	2024-01-18
-0.867	0.351	-9.744	0.288717	0.635142	0.156912	-2.131365	-5.422337	6.035318	365.457	00:06:05.242	2024-01-18
-0.867	0.358	-9.743	0.121236	0.375298	0.165775	-2.131724	-5.423308	6.035473	365.471	00:06:05.256	2024-01-18
-0.866	0.365	-9.742	-0.046245	0.115455	0.174638	-2.132082	-5.424279	6.035626	365.485	00:06:05.270	2024-01-18
-0.866	0.372	-9.741	-0.213726	-0.144389	0.183502	-2.132440	-5.425252	6.035778	365.499	00:06:05.284	2024-01-18
-0.865	0.379	-9.740	-0.381207	-0.404232	0.192365	-2.132799	-5.426223	6.035930	365.513	00:06:05.298	2024-01-18
-0.888	0.401	-9.734	-0.242394	-0.542440	0.255003	-2.135639	-5.433132	6.040444	365.527	00:06:05.312	2024-01-18
-0.905	0.397	-9.729	-0.177353	-0.539750	0.424709	-2.139099	-5.440843	6.046218	365.541	00:06:05.326	2024-01-18
-0.928	0.320	-9.788	-0.196768	-0.479796	0.439937	-2.142832	-5.448304	6.052703	365.555	00:06:05.340	2024-01-18
-0.874	0.379	-9.751	-0.526307	-0.515390	-0.046549	-2.148814	-5.456530	6.050300	365.569	00:06:05.354	2024-01-18
-0.880	0.396	-9.759	-0.353437	-0.623577	-0.385004	-2.152635	-5.465601	6.046562	365.583	00:06:05.368	2024-01-18
-0.917	0.444	-9.726	-0.147609	-0.630788	-0.331906	-2.154535	-5.474738	6.042612	365.597	00:06:05.382	2024-01-18
-0.968	0.410	-9.727	0.003701	-0.409274	-0.010747	-2.154661	-5.480473	6.043402	365.611	00:06:05.396	2024-01-18
-0.966	0.396	-9.713	0.163611	-0.177953	0.143965	-2.153283	-5.483764	6.045133	365.625	00:06:05.410	2024-01-18
-0.942	0.355	-9.756	0.119634	-0.044664	0.075880	-2.151069	-5.485203	6.046137	365.639	00:06:05.424	2024-01-18
-0.918	0.358	-9.751	0.030709	0.103469	-0.125394	-2.148267	-5.484454	6.044387	365.653	00:06:05.438	2024-01-18
-0.921	0.352	-9.758	0.185473	0.125619	-0.137740	-2.145465	-5.483703	6.042640	365.667	00:06:05.452	2024-01-18
-0.924	0.341	-9.743	0.267046	0.192820	-0.142039	-2.142390	-5.482189	6.040739	365.681	00:06:05.466	2024-01-18
-0.913	0.349	-9.734	0.242545	0.212537	-0.126496	-2.138951	-5.479658	6.038633	365.695	00:06:05.480	2024-01-18
-0.882	0.348	-9.739	0.031584	0.152626	0.031546	-2.139659	-5.479358	6.039669	365.709	00:06:05.494	2024-01-18
-0.854	0.332	-9.762	-0.163976	-0.068611	0.050625	-2.141917	-5.481473	6.040028	365.723	00:06:05.508	2024-01-18
-0.851	0.345	-9.754	-0.296287	-0.303329	-0.047090	-2.145570	-5.485919	6.039929	365.737	00:06:05.522	2024-01-18
-0.883	0.345	-9.749	-0.336072	-0.463965	-0.041507	-2.150628	-5.493499	6.040100	365.751	00:06:05.536	2024-01-18
-0.909	0.355	-9.731	-0.426363	-0.491006	0.113502	-2.156505	-5.501335	6.043234	365.765	00:06:05.550	2024-01-18
-0.914	0.372	-9.725	-0.407310	-0.547648	0.371296	-2.162156	-5.509112	6.046782	365.779	00:06:05.564	2024-01-18
-0.914	0.376	-9.726	-0.395783	-0.527407	0.347205	-2.166423	-5.516489	6.048396	365.793	00:06:05.578	2024-01-18
-0.927	0.382	-9.729	-0.314620	-0.453802	0.293288	-2.170690	-5.523866	6.050011	365.807	00:06:05.592	2024-01-18
-0.939	0.388	-9.731	-0.233456	-0.380198	0.239371	-2.174958	-5.531242	6.051627	365.821	00:06:05.606	2024-01-18
-0.951	0.394	-9.734	-0.152292	-0.306594	0.185454	-2.179225	-5.538619	6.053243	365.835	00:06:05.620	2024-01-18
-0.963	0.400	-9.737	-0.071128	-0.232989	0.131537	-2.183492	-5.545997	6.054858	365.849	00:06:05.634	2024-01-18
-0.976	0.406	-9.740	0.010035	-0.159385	0.077620	-2.187761	-5.553372	6.056476	365.863	00:06:05.648	2024-01-18
-0.984	0.406	-9.744	0.092793	-0.063647	0.024814	-2.191088	-5.559402	6.057900	365.877	00:06:05.662	2024-01-18
-0.966	0.379	-9.749	0.150137	0.147912	0.006279	-2.188775	-5.557358	6.058152	365.891	00:06:05.676	2024-01-18
-0.935	0.379	-9.747	0.163730	0.292430	-0.000879	-2.186779	-5.554361	6.058578	365.905	00:06:05.690	2024-01-18
-0.908	0.365	-9.741	0.121514	0.269863	0.108596	-2.185379	-5.551515	6.059905	365.919	00:06:05.704	2024-01-18
-0.884	0.375	-9.740	0.071233	0.144474	0.253249	-2.185146	-5.549993	6.063314	365.933	00:06:05.718	2024-01-18
-0.868	0.359	-9.739	0.027550	-0.008485	0.233234	-2.185388	-5.551619	6.066617	365.947	00:06:05.732	2024-01-18
-0.884	0.348	-9.745	-0.062082	-0.176072	0.136576	-2.186410	-5.555036	6.068814	365.961	00:06:05.746	2024-01-18
-0.904	0.361	-9.745	-0.145249	-0.357159	0.041497	-2.188366	-5.560142	6.069556	365.975	00:06:05.760	2024-01-18
-0.917	0.361	-9.743	-0.249668	-0.368022	0.040735	-2.192049	-5.566311	6.071012	365.989	00:06:05.774	2024-01-18
-0.939	0.358	-9.747	-0.310039	-0.387045	0.191320	-2.196222	-5.571553	6.074451	366.003	00:06:05.788	2024-01-18
-0.943	0.369	-9.744	-0.293123	-0.303374	0.291676	-2.200762	-5.576098	6.079381	366.017	00:06:05.802	2024-01-18
-0.941	0.383	-9.741	-0.255016	-0.209163	0.381932	-2.205303	-5.580643	6.084310	366.031	00:06:05.816	2024-01-18
-0.915	0.397	-9.740	-0.240763	-0.243808	0.416051	-2.207578	-5.586333	6.087897	366.045	00:06:05.830	2024-01-18
-0.851	0.394	-9.736	-0.097273	-0.528453	0.021719	-2.209667	-5.593286	6.089202	366.059	00:06:05.844	2024-01-18
-0.922	0.379	-9.742	-0.333830	-0.573063	-0.277680	-2.213556	-5.602251	6.086151	366.073	00:06:05.858	2024-01-18
-0.963	0.424	-9.733	-0.126822	-0.548233	-0.245718	-2.214438	-5.610179	6.083478	366.087	00:06:05.872	2024-01-18
-0.960	0.417	-9.745	0.008580	-0.447771	-0.196970	-2.214101	-5.617164	6.081082	366.101	00:06:05.886	2024-01-18
-0.953	0.393	-9.747	0.090248	-0.330255	-0.131867	-2.212808	-5.623124	6.078967	366.115	00:06:05.900	2024-01-18
-0.954	0.363	-9.749	0.002195	-0.244983	-0.098078	-2.213327	-5.626525	6.077894	366.129	00:06:05.914	2024-01-18
-0.985	0.360	-9.760	-0.128373	-0.026882	-0.095568	-2.214327	-5.628067	6.078333	366.143	00:06:05.928	2024-01-18
-0.979	0.359	-9.761	-0.171399	-0.005653	-0.072443	-2.215689	-5.628211	6.079911	366.157	00:06:05.942	2024-01-18
-0.966	0.357	-9.757	-0.201960	-0.022666	-0.049606	-2.217049	-5.628356	6.081486	366.171	00:06:05.956	2024-01-18
-0.953	0.355	-9.754	-0.232521	-0.039679	-0.026769	-2.218410	-5.628501	6.083061	366.185	00:06:05.970	2024-01-18
-0.940	0.354	-9.750	-0.263082	-0.056691	-0.003932	-2.219771	-5.628647	6.084639	366.199	00:06:05.984	2024-01-18
-0.928	0.352	-9.746	-0.293643	-0.073704	0.018905	-2.221132	-5.628791	6.086215	366.213	00:06:05.998	2024-01-18
-0.918	0.356	-9.743	-0.322997	-0.108928	0.022246	-2.222493	-5.628936	6.087791	366.227	00:06:06.012	2024-01-18
-0.922	0.390	-9.749	-0.354264	-0.219836	-0.013061	-2.225021	-5.631102	6.089515	366.241	00:06:06.026	2024-01-18
-0.921	0.399	-9.740	-0.231845	-0.312842	0.160137	-2.229106	-5.635961	6.091441	366.255	00:06:06.040	2024-01-18
-0.915	0.395	-9.743	-0.313543	-0.382127	0.279045	-2.233952	-5.642599	6.095652	366.269	00:06:06.054	2024-01-18
-0.914	0.373	-9.749	-0.357465	-0.487818	0.267658	-2.239228	-5.649822	6.099431	366.283	00:06:06.068	2024-01-18
-0.919	0.406	-9.742	-0.349244	-0.530410	0.182318	-2.244158	-5.657864	6.102538	366.297	00:06:06.082	2024-01-18
-0.922	0.431	-9.743	-0.121079	-0.649913	0.053965	-2.245071	-5.668191	6.103540	366.311	00:06:06.096	2024-01-18
-0.878	0.440	-9.703	0.318237	-0.900352	-0.067052	-2.241530	-5.681531	6.102409	366.325	00:06:06.110	2024-01-18
-0.942	0.341	-9.757	0.270013	-0.949150	-0.279173	-2.237649	-5.694891	6.099455	366.339	00:06:06.124	2024-01-18
-1.020	0.321	-9.752	-0.028544	-0.664495	-0.408781	-2.237370	-5.705286	6.094086	366.353	00:06:06.138	2024-01-18
-1.026	0.360	-9.744	-0.103528	-0.414084	-0.376008	-2.238011	-5.709230	6.092514	366.367	00:06:06.152	2024-01-18
-0.990	0.394	-9.749	-0.032318	-0.149252	-0.122670	-2.238804	-5.712100	6.091575	366.381	00:06:06.166	2024-01-18
-0.942	0.399	-9.751	-0.062101	-0.051021	0.173761	-2.239598	-5.714969	6.090635	366.395	00:06:06.180	2024-01-18
-0.939	0.397	-9.726	-0.184639	-0.016848	0.258873	-2.243510	-5.716062	6.094503	366.409	00:06:06.194	2024-01-18
-0.943	0.412	-9.729	-0.297474	-0.082110	0.336405	-2.247622	-5.717816	6.099109	366.423	00:06:06.208	2024-01-18
-0.938	0.437	-9.728	-0.281514	-0.170823	0.348109	-2.251480	-5.720387	6.103995	366.437	00:06:06.222	2024-01-18
-0.933	0.431	-9.732	-0.091542	-0.258066	0.230911	-2.252926	-5.724899	6.107261	366.451	00:06:06.236	2024-01-18
-0.957	0.412	-9.743	0.013398	-0.267371	-0.071611	-2.252752	-5.729047	6.105752	366.465	00:06:06.250	2024-01-18
-0.997	0.405	-9.755	0.018082	-0.126015	-0.368156	-2.251316	-5.731157	6.101290	366.479	00:06:06.264	2024-01-18
-1.050	0.402	-9.759	0.181770	0.254088	-0.502183	-2.248341	-5.728530	6.094216	366.493	00:06:06.278	2024-01-18
-1.025	0.394	-9.759	0.211708	0.340271	-0.468406	-2.243106	-5.717507	6.091596	366.507	00:06:06.292	2024-01-18
-0.987	0.387	-9.759	0.215574	0.361016	-0.418864	-2.237493	-5.705085	6.089716	366.521	00:06:06.306	2024-01-18
-0.949	0.381	-9.759	0.219440	0.381761	-0.369322	-2.231881	-5.692661	6.087838	366.535	00:06:06.320	2024-01-18
-0.911	0.374	-9.759	0.223307	0.402506	-0.319780	-2.226270	-5.680238	6.085962	366.549	00:06:06.334	2024-01-18
-0.872	0.368	-9.760	0.227173	0.423250	-0.270238	-2.220659	-5.667815	6.084087	366.563	00:06:06.348	2024-01-18
-0.834	0.361	-9.760	0.231040	0.443995	-0.220696	-2.215048	-5.655392	6.082212	366.577	00:06:06.362	2024-01-18
-0.820	0.350	-9.748	0.174796	0.233332	-0.190442	-2.209439	-5.642968	6.080339	366.591	00:06:06.376	2024-01-18
-0.836	0.359	-9.730	0.065603	-0.260214	-0.201646	-2.207265	-5.645042	6.079122	366.605	00:06:06.390	2024-01-18
-0.874	0.340	-9.741	-0.004348	-0.633427	-0.006389	-2.207754	-5.654070	6.079330	366.619	00:06:06.404	2024-01-18
-0.912	0.322	-9.740	-0.255573	-0.794136	0.186909	-2.211464	-5.665997	6.082456	366.633	00:06:06.418	2024-01-18
-0.961	0.333	-9.754	-0.472744	-0.749990	0.252614	-2.218710	-5.676479	6.086368	366.647	00:06:06.432	2024-01-18
-0.985	0.367	-9.742	-0.573820	-0.592475	0.251612	-2.226670	-5.685501	6.090249	366.661	00:06:06.446	2024-01-18
-0.990	0.403	-9.742	-0.560639	-0.511745	0.226310	-2.234795	-5.692897	6.093911	366.675	00:06:06.460	2024-01-18
-0.975	0.430	-9.738	-0.465069	-0.311604	0.282891	-2.241028	-5.696933	6.098562	366.689	00:06:06.474	2024-01-18
-0.958	0.460	-9.736	-0.315234	-0.189144	0.390585	-2.245348	-5.699658	6.103610	366.703	00:06:06.488	2024-01-18
-0.962	0.445	-9.744	-0.126913	-0.081874	0.316848	-2.247461	-5.700912	6.107766	366.717	00:06:06.502	2024-01-18
-0.965	0.435	-9.747	-0.001220	0.023460	0.004545	-2.244931	-5.699249	6.104773	366.731	00:06:06.516	2024-01-18
-0.987	0.444	-9.745	0.164726	0.194684	-0.367622	-2.242401	-5.697586	6.101780	366.745	00:06:06.530	2024-01-18
-1.006	0.431	-9.751	0.374241	0.417589	-0.399645	-2.238113	-5.693945	6.098155	366.759	00:06:06.544	2024-01-18
-1.000	0.398	-9.735	0.568285	0.703433	-0.351258	-2.229427	-5.685361	6.092943	366.773	00:06:06.558	2024-01-18
-0.988	0.371	-9.740	0.668490	0.827575	-0.267112	-2.219979	-5.673811	6.088596	366.787	00:06:06.572	2024-01-18
-0.951	0.354	-9.738	0.628333	0.945096	-0.335177	-2.211119	-5.661928	6.083691	366.801	00:06:06.586	2024-01-18
-0.941	0.339	-9.730	0.488067	0.926137	-0.372495	-2.203212	-5.650262	6.077845	366.815	00:06:06.600	2024-01-18
-0.930	0.359	-9.744	0.420229	0.899309	-0.378399	-2.197654	-5.638702	6.072454	366.829	00:06:06.614	2024-01-18
-0.922	0.374	-9.751	0.227583	0.949712	-0.265144	-2.194027	-5.627384	6.069054	366.843	00:06:06.628	2024-01-18
-0.905	0.376	-9.751	0.149656	0.790027	-0.039204	-2.192381	-5.618326	6.067429	366.857	00:06:06.642	2024-01-18
-0.916	0.377	-9.749	0.072816	0.585959	-0.036953	-2.193937	-5.621745	6.067498	366.871	00:06:06.656	2024-01-18
-0.926	0.378	-9.747	-0.004024	0.381890	-0.034702	-2.195493	-5.625164	6.067569	366.885	00:06:06.670	2024-01-18
-0.937	0.380	-9.745	-0.080864	0.177822	-0.032451	-2.197049	-5.628584	6.067639	366.899	00:06:06.684	2024-01-18
-0.947	0.381	-9.743	-0.157704	-0.026246	-0.030200	-2.198605	-5.632005	6.067710	366.913	00:06:06.698	2024-01-18
-0.957	0.382	-9.742	-0.234544	-0.230314	-0.027950	-2.200161	-5.635424	6.067780	366.927	00:06:06.712	2024-01-18
-0.968	0.384	-9.740	-0.311384	-0.434382	-0.025699	-2.201717	-5.638843	6.067850	366.941	00:06:06.726	2024-01-18
-0.996	0.394	-9.738	-0.248053	-0.364556	0.197934	-2.203272	-5.642263	6.067920	366.955	00:06:06.740	2024-01-18
-0.993	0.397	-9.737	-0.169494	-0.151541	0.375260	-2.206092	-5.643831	6.073343	366.969	00:06:06.754	2024-01-18
-0.969	0.394	-9.777	-0.134549	0.097149	0.239936	-2.209024	-5.643050	6.076490	366.983	00:06:06.768	2024-01-18
-0.945	0.384	-9.754	-0.268157	0.249167	0.034716	-2.211562	-5.640660	6.077611	366.997	00:06:06.782	2024-01-18
-0.918	0.436	-9.734	-0.009573	0.151690	-0.068582	-2.211215	-5.639191	6.076793	367.011	00:06:06.796	2024-01-18
-0.905	0.395	-9.736	0.202764	0.076277	-0.007416	-2.208859	-5.639666	6.075883	367.025	00:06:06.810	2024-01-18
-0.903	0.387	-9.722	0.196795	-0.117220	-0.113715	-2.205902	-5.641613	6.073999	367.039	00:06:06.824	2024-01-18
-0.930	0.365	-9.758	0.134938	-0.226360	-0.315422	-2.203451	-5.645297	6.069775	367.053	00:06:06.838	2024-01-18
-0.990	0.372	-9.755	0.005383	-0.054081	-0.511129	-2.201945	-5.646196	6.063824	367.067	00:06:06.852	2024-01-18
-1.017	0.398	-9.754	0.139621	0.196150	-0.323288	-2.199643	-5.643042	6.061008	367.081	00:06:06.866	2024-01-18
-1.004	0.384	-9.748	0.268370	0.487023	-0.005097	-2.196070	-5.635104	6.062760	367.095	00:06:06.880	2024-01-18
-0.970	0.359	-9.743	0.327246	0.740507	0.286339	-2.192496	-5.627166	6.064511	367.109	00:06:06.894	2024-01-18
-0.905	0.346	-9.741	0.202898	0.730852	0.245330	-2.190325	-5.619498	6.065636	367.123	00:06:06.908	2024-01-18
-0.862	0.361	-9.746	0.064494	0.512293	-0.053833	-2.189203	-5.612845	6.065373	367.137	00:06:06.922	2024-01-18
-0.879	0.376	-9.749	0.027502	0.235520	-0.364304	-2.188046	-5.611097	6.059602	367.151	00:06:06.936	2024-01-18
-0.949	0.382	-9.750	0.046936	0.139378	-0.417652	-2.186966	-5.609118	6.055393	367.165	00:06:06.950	2024-01-18
-0.954	0.402	-9.738	0.066971	0.224583	-0.138140	-2.185902	-5.606938	6.053438	367.179	00:06:06.964	2024-01-18
-0.951	0.377	-9.747	0.088358	0.231720	0.171232	-2.184801	-5.604484	6.055562	367.193	00:06:06.978	2024-01-18
-0.916	0.373	-9.742	0.014126	0.290278	0.307181	-2.184559	-5.601434	6.059068	367.207	00:06:06.992	2024-01-18
-0.908	0.364	-9.735	0.038737	0.238116	0.199732	-2.183543	-5.599019	6.060058	367.221	00:06:07.006	2024-01-18
-0.921	0.369	-9.737	0.051904	0.263517	0.127905	-2.181304	-5.597583	6.057382	367.235	00:06:07.020	2024-01-18
-0.933	0.373	-9.740	0.065072	0.288917	0.056078	-2.179066	-5.596147	6.054709	367.249	00:06:07.034	2024-01-18
-0.946	0.378	-9.743	0.078239	0.314318	-0.015749	-2.176827	-5.594712	6.052032	367.263	00:06:07.048	2024-01-18
-0.958	0.383	-9.746	0.091407	0.339718	-0.087576	-2.174589	-5.593276	6.049359	367.277	00:06:07.062	2024-01-18
-0.971	0.388	-9.748	0.104575	0.365119	-0.159404	-2.172350	-5.591840	6.046684	367.291	00:06:07.076	2024-01-18
-0.947	0.393	-9.736	0.161442	0.434463	-0.061355	-2.169930	-5.587967	6.046354	367.305	00:06:07.090	2024-01-18
-0.908	0.370	-9.742	0.189481	0.361435	0.085146	-2.167751	-5.583642	6.046908	367.319	00:06:07.104	2024-01-18
-0.894	0.352	-9.738	0.116817	0.256238	0.027759	-2.166357	-5.580621	6.047330	367.333	00:06:07.118	2024-01-18
-0.896	0.360	-9.742	0.077060	0.130924	-0.077185	-2.164815	-5.580195	6.046556	367.347	00:06:07.132	2024-01-18
-0.916	0.364	-9.752	0.069180	0.061268	-0.063123	-2.163821	-5.580037	6.045779	367.361	00:06:07.146	2024-01-18
-0.933	0.372	-9.751	-0.015344	0.078941	-0.058154	-2.163591	-5.579660	6.045257	367.375	00:06:07.160	2024-01-18
-0.911	0.381	-9.748	0.056601	-0.036876	0.086070	-2.162840	-5.581154	6.047087	367.389	00:06:07.174	2024-01-18
-0.919	0.369	-9.751	0.045214	-0.104954	0.171797	-2.162837	-5.583213	6.048579	367.403	00:06:07.188	2024-01-18
-0.925	0.362	-9.747	-0.084067	-0.137497	0.031886	-2.163695	-5.585611	6.049572	367.417	00:06:07.202	2024-01-18
-0.925	0.367	-9.746	-0.171057	-0.090841	-0.059421	-2.166346	-5.587503	6.049075	367.431	00:06:07.216	2024-01-18
-0.928	0.385	-9.741	-0.188698	-0.043895	-0.013374	-2.168997	-5.589394	6.048579	367.445	00:06:07.230	2024-01-18
-0.931	0.402	-9.742	-0.171045	0.002474	0.023543	-2.170915	-5.590845	6.048162	367.459	00:06:07.244	2024-01-18
-0.941	0.404	-9.743	-0.008541	0.007100	-0.023127	-2.171001	-5.591194	6.047945	367.473	00:06:07.258	2024-01-18
-0.970	0.388	-9.751	0.081831	0.126111	-0.144263	-2.169843	-5.589119	6.045896	367.487	00:06:07.272	2024-01-18
-0.986	0.403	-9.744	0.139437	0.330093	-0.198860	-2.167216	-5.585331	6.043267	367.501	00:06:07.286	2024-01-18
-0.971	0.398	-9.752	0.291661	0.490939	-0.204339	-2.162910	-5.579795	6.040282	367.515	00:06:07.300	2024-01-18
-0.943	0.379	-9.739	0.371221	0.645833	-0.196540	-2.157184	-5.571242	6.037045	367.529	00:06:07.314	2024-01-18
-0.925	0.381	-9.751	0.432408	0.694698	-0.184517	-2.151305	-5.562649	6.034660	367.543	00:06:07.328	2024-01-18
-0.913	0.380	-9.745	0.390126	0.647366	-0.099891	-2.146081	-5.555010	6.033021	367.557	00:06:07.342	2024-01-18
-0.917	0.380	-9.745	0.320346	0.572073	-0.079754	-2.145467	-5.553282	6.032029	367.571	00:06:07.356	2024-01-18
-0.921	0.379	-9.745	0.250566	0.496781	-0.059617	-2.144853	-5.551553	6.031039	367.585	00:06:07.370	2024-01-18
-0.925	0.379	-9.745	0.180786	0.421488	-0.039480	-2.144238	-5.549825	6.030047	367.599	00:06:07.384	2024-01-18
-0.929	0.379	-9.746	0.111006	0.346195	-0.019342	-2.143624	-5.548096	6.029057	367.613	00:06:07.398	2024-01-18
-0.933	0.379	-9.746	0.041227	0.270903	0.000795	-2.143011	-5.546368	6.028066	367.627	00:06:07.412	2024-01-18
-0.937	0.378	-9.746	-0.028553	0.195610	0.020932	-2.142397	-5.544639	6.027076	367.641	00:06:07.426	2024-01-18
-0.942	0.378	-9.746	-0.098333	0.120317	0.041069	-2.141783	-5.542911	6.026085	367.655	00:06:07.440	2024-01-18
-0.915	0.374	-9.742	-0.006638	0.169105	0.260819	-2.142196	-5.541668	6.030336	367.669	00:06:07.454	2024-01-18
-0.885	0.348	-9.750	-0.065108	0.036168	0.342220	-2.144152	-5.541955	6.034321	367.683	00:06:07.468	2024-01-18
-0.859	0.348	-9.743	-0.246590	-0.129413	0.204643	-2.147421	-5.544211	6.037483	367.697	00:06:07.482	2024-01-18
-0.855	0.374	-9.739	-0.319504	-0.401897	-0.053148	-2.151616	-5.551398	6.036866	367.711	00:06:07.496	2024-01-18
-0.873	0.409	-9.738	-0.239857	-0.660154	-0.140747	-2.154138	-5.560882	6.035202	367.725	00:06:07.510	2024-01-18
-0.925	0.398	-9.739	-0.134424	-0.695558	-0.187905	-2.155690	-5.570685	6.033213	367.739	00:06:07.524	2024-01-18
-1.001	0.383	-9.738	-0.052552	-0.524472	-0.153425	-2.156492	-5.578990	6.031461	367.753	00:06:07.538	2024-01-18
-1.038	0.383	-9.744	-0.042951	-0.110051	-0.077225	-2.156659	-5.579366	6.031106	367.767	00:06:07.552	2024-01-18
-1.039	0.397	-9.752	0.040198	0.378149	0.042228	-2.154959	-5.574521	6.031562	367.781	00:06:07.566	2024-01-18
-0.987	0.402	-9.753	0.191761	0.621433	0.076398	-2.150913	-5.564477	6.032793	367.795	00:06:07.580	2024-01-18
-0.919	0.401	-9.744	0.367422	0.754648	0.090373	-2.146866	-5.554434	6.034020	367.809	00:06:07.594	2024-01-18
-0.852	0.394	-9.743	0.469569	0.672184	0.021615	-2.141358	-5.546747	6.033058	367.823	00:06:07.608	2024-01-18
-0.838	0.334	-9.747	0.433426	0.406944	-0.257084	-2.135032	-5.541819	6.030122	367.837	00:06:07.622	2024-01-18
-0.860	0.329	-9.730	0.318449	0.010748	-0.355331	-2.130362	-5.542842	6.025185	367.851	00:06:07.636	2024-01-18
-0.902	0.342	-9.750	0.207144	-0.223614	-0.296876	-2.128408	-5.545919	6.021826	367.865	00:06:07.650	2024-01-18
-0.929	0.330	-9.750	-0.081338	-0.157738	-0.133113	-2.128756	-5.549497	6.020166	367.879	00:06:07.664	2024-01-18
-0.952	0.345	-9.748	-0.237902	-0.130904	0.042128	-2.132139	-5.552278	6.021171	367.893	00:06:07.678	2024-01-18
-0.960	0.342	-9.747	-0.309237	0.067999	0.166671	-2.137159	-5.551539	6.023223	367.907	00:06:07.692	2024-01-18
-0.955	0.347	-9.745	-0.368224	0.181150	0.168506	-2.139544	-5.549760	6.024536	367.921	00:06:07.706	2024-01-18
-0.940	0.351	-9.744	-0.276872	0.148169	0.123375	-2.138054	-5.547379	6.024626	367.935	00:06:07.720	2024-01-18
-0.925	0.355	-9.744	-0.185520	0.115188	0.078244	-2.136564	-5.544998	6.024719	367.949	00:06:07.734	2024-01-18
-0.910	0.358	-9.743	-0.094167	0.082207	0.033113	-2.135074	-5.542618	6.024810	367.963	00:06:07.748	2024-01-18
-0.895	0.362	-9.743	-0.002815	0.049226	-0.012018	-2.133584	-5.540238	6.024901	367.977	00:06:07.762	2024-01-18
-0.880	0.366	-9.742	0.088537	0.016245	-0.057149	-2.132093	-5.537857	6.024994	367.991	00:06:07.776	2024-01-18
-0.865	0.370	-9.742	0.179889	-0.016736	-0.102280	-2.130603	-5.535476	6.025084	368.005	00:06:07.790	2024-01-18
-0.889	0.366	-9.742	0.238118	-0.210072	-0.137991	-2.128799	-5.534914	6.024806	368.019	00:06:07.804	2024-01-18
-0.923	0.353	-9.747	0.191076	-0.204630	-0.100526	-2.126206	-5.538897	6.023598	368.033	00:06:07.818	2024-01-18
-0.946	0.332	-9.717	0.002288	-0.072912	-0.137458	-2.127946	-5.539934	6.022094	368.047	00:06:07.832	2024-01-18
-0.992	0.418	-9.861	0.353654	0.044278	-0.045262	-2.129261	-5.537875	6.021438	368.061	00:06:07.846	2024-01-18
-0.953	0.172	-9.644	-0.764557	0.749520	0.002273	-2.129047	-5.532342	6.021981	368.075	00:06:07.860	2024-01-18
-0.908	0.445	-9.696	0.332291	0.241235	0.166394	-2.124249	-5.530406	6.025794	368.089	00:06:07.874	2024-01-18
-0.911	0.333	-9.803	0.015025	0.265510	0.636058	-2.122910	-5.527968	6.030512	368.103	00:06:07.888	2024-01-18
-0.830	0.360	-9.674	-0.093642	0.155161	0.182638	-2.124166	-5.525763	6.034691	368.117	00:06:07.902	2024-01-18
-0.909	0.351	-9.797	-0.038400	-0.100360	-0.219737	-2.125426	-5.527230	6.031513	368.131	00:06:07.916	2024-01-18
-0.940	0.352	-9.834	0.002478	-0.129222	-0.180272	-2.125979	-5.527776	6.030105	368.145	00:06:07.930	2024-01-18
-0.958	0.337	-9.835	0.106237	-0.065972	-0.037282	-2.126251	-5.527951	6.029410	368.159	00:06:07.944	2024-01-18
-0.934	0.343	-9.737	-0.153644	0.194878	0.002440	-2.126523	-5.528127	6.028713	368.173	00:06:07.958	2024-01-18
-0.920	0.421	-9.712	0.167370	0.096005	-0.041604	-2.124004	-5.527147	6.028589	368.187	00:06:07.972	2024-01-18
-0.934	0.380	-9.758	0.221659	0.259280	0.008244	-2.121028	-5.524844	6.028216	368.201	00:06:07.986	2024-01-18
-0.940	0.351	-9.739	0.154159	0.318629	-0.100532	-2.118065	-5.521031	6.027385	368.215	00:06:08.000	2024-01-18
-0.922	0.373	-9.738	0.242059	0.371928	-0.051459	-2.114062	-5.516262	6.027175	368.229	00:06:08.014	2024-01-18
-0.904	0.377	-9.744	0.198078	0.401720	0.113915	-2.110959	-5.511754	6.028936	368.243	00:06:08.028	2024-01-18
-0.891	0.365	-9.752	0.247423	0.303036	0.296368	-2.108816	-5.508186	6.031712	368.257	00:06:08.042	2024-01-18
-0.896	0.327	-9.760	0.066222	0.294476	0.316347	-2.108394	-5.509071	6.031734	368.271	00:06:08.056	2024-01-18
-0.907	0.331	-9.763	0.070506	0.234812	0.293335	-2.107972	-5.509955	6.031756	368.285	00:06:08.070	2024-01-18
-0.918	0.335	-9.765	0.074791	0.175149	0.270322	-2.107548	-5.510840	6.031778	368.299	00:06:08.084	2024-01-18
-0.929	0.340	-9.767	0.079075	0.115485	0.247310	-2.107126	-5.511724	6.031799	368.313	00:06:08.098	2024-01-18
-0.940	0.344	-9.770	0.083360	0.055821	0.224297	-2.106703	-5.512609	6.031820	368.327	00:06:08.112	2024-01-18
-0.951	0.349	-9.772	0.087644	-0.003843	0.201285	-2.106281	-5.513493	6.031842	368.341	00:06:08.126	2024-01-18
-0.962	0.353	-9.775	0.091928	-0.063507	0.178273	-2.105858	-5.514377	6.031863	368.355	00:06:08.140	2024-01-18
-0.975	0.334	-9.793	0.042146	-0.031505	0.137430	-2.105436	-5.515262	6.031886	368.369	00:06:08.154	2024-01-18
-0.934	0.346	-9.738	-0.176528	0.215115	0.000634	-2.105087	-5.514292	6.031683	368.383	00:06:08.168	2024-01-18
-0.924	0.402	-9.755	0.096580	0.251956	-0.017980	-2.105028	-5.511642	6.031633	368.397	00:06:08.182	2024-01-18
-0.908	0.346	-9.760	-0.065944	0.339737	0.157898	-2.106381	-5.507253	6.033509	368.411	00:06:08.196	2024-01-18
-0.864	0.336	-9.699	-0.029359	0.200512	-0.081108	-2.106568	-5.506701	6.032037	368.425	00:06:08.210	2024-01-18
-0.861	0.365	-9.738	-0.063659	-0.157749	-0.235578	-2.106545	-5.509069	6.029866	368.439	00:06:08.224	2024-01-18
-0.865	0.412	-9.723	-0.038454	-0.360615	-0.037835	-2.107164	-5.514901	6.029295	368.453	00:06:08.238	2024-01-18
-0.917	0.357	-9.780	0.073951	-0.413180	-0.073565	-2.107672	-5.520908	6.028307	368.467	00:06:08.252	2024-01-18
-0.944	0.368	-9.745	-0.128999	-0.264581	-0.127344	-2.108126	-5.525703	6.027512	368.481	00:06:08.266	2024-01-18
-0.976	0.403	-9.752	0.056078	-0.150347	-0.051302	-2.108534	-5.528844	6.027068	368.495	00:06:08.280	2024-01-18
-0.954	0.404	-9.732	0.097016	0.059767	0.123740	-2.105232	-5.525767	6.027688	368.509	00:06:08.294	2024-01-18
-0.940	0.363	-9.716	0.079453	0.323622	0.028639	-2.101931	-5.522691	6.028310	368.523	00:06:08.308	2024-01-18
-0.917	0.395	-9.726	0.284740	0.371616	-0.037450	-2.098680	-5.519502	6.028949	368.537	00:06:08.322	2024-01-18
-0.915	0.344	-9.747	0.242915	0.332070	0.055038	-2.095739	-5.515629	6.029695	368.551	00:06:08.336	2024-01-18
-0.895	0.310	-9.727	0.281553	0.231555	-0.203053	-2.092343	-5.512819	6.026532	368.565	00:06:08.350	2024-01-18
-0.924	0.316	-9.771	0.091896	0.245243	-0.336941	-2.090118	-5.509932	6.022881	368.579	00:06:08.364	2024-01-18
-0.930	0.350	-9.727	-0.073982	0.362150	-0.049383	-2.091276	-5.505786	6.021923	368.593	00:06:08.378	2024-01-18
-0.913	0.345	-9.741	-0.098285	0.379396	0.323630	-2.094409	-5.501310	6.027350	368.607	00:06:08.392	2024-01-18
-0.881	0.345	-9.754	-0.324140	0.305406	0.500480	-2.098885	-5.498556	6.033428	368.621	00:06:08.406	2024-01-18
-0.827	0.398	-9.711	-0.392273	0.015380	0.398646	-2.104715	-5.498172	6.038960	368.635	00:06:08.420	2024-01-18
-0.859	0.392	-9.723	-0.249302	0.067940	0.283838	-2.103928	-5.501927	6.036652	368.649	00:06:08.434	2024-01-18
-0.890	0.385	-9.734	-0.106330	0.120501	0.169029	-2.103142	-5.505683	6.034343	368.663	00:06:08.448	2024-01-18
-0.922	0.379	-9.746	0.036641	0.173061	0.054221	-2.102355	-5.509438	6.032035	368.677	00:06:08.462	2024-01-18
-0.953	0.373	-9.758	0.179612	0.225622	-0.060587	-2.101567	-5.513194	6.029726	368.691	00:06:08.476	2024-01-18
-0.985	0.367	-9.770	0.322584	0.278182	-0.175396	-2.100781	-5.516949	6.027418	368.705	00:06:08.490	2024-01-18
-1.000	0.358	-9.761	0.403962	0.413306	-0.324146	-2.098062	-5.517340	6.024054	368.719	00:06:08.504	2024-01-18
-0.963	0.369	-9.722	0.475882	0.616744	-0.418572	-2.090517	-5.509315	6.018052	368.733	00:06:08.518	2024-01-18
-0.954	0.345	-9.740	0.504500	0.780498	-0.180784	-2.084417	-5.498593	6.016955	368.747	00:06:08.532	2024-01-18
-0.913	0.322	-9.743	0.303712	0.896969	0.292699	-2.081050	-5.487562	6.019937	368.761	00:06:08.546	2024-01-18
-0.825	0.302	-9.753	0.025697	0.768588	0.562046	-2.081006	-5.476719	6.027268	368.775	00:06:08.560	2024-01-18
-0.770	0.332	-9.745	-0.222483	0.192334	0.424095	-2.084782	-5.477357	6.032637	368.789	00:06:08.574	2024-01-18
-0.768	0.348	-9.753	-0.197705	-0.419886	0.138866	-2.088252	-5.483955	6.034450	368.803	00:06:08.588	2024-01-18
-0.834	0.336	-9.746	-0.245199	-0.817887	-0.130035	-2.091609	-5.495664	6.033634	368.817	00:06:08.602	2024-01-18
-0.888	0.362	-9.728	-0.302460	-1.039204	-0.124141	-2.095658	-5.511209	6.033004	368.831	00:06:08.616	2024-01-18
-0.959	0.355	-9.746	-0.298156	-0.975540	0.219667	-2.101187	-5.523122	6.035795	368.845	00:06:08.630	2024-01-18
-0.971	0.340	-9.753	-0.427704	-0.732467	0.279667	-2.107307	-5.533582	6.039950	368.859	00:06:08.644	2024-01-18
-0.974	0.352	-9.755	-0.480055	-0.546396	0.194082	-2.113428	-5.544042	6.044107	368.873	00:06:08.658	2024-01-18
-0.971	0.388	-9.742	-0.439316	-0.294039	0.068716	-2.118839	-5.547585	6.045108	368.887	00:06:08.672	2024-01-18
-0.987	0.396	-9.740	-0.295961	-0.011879	-0.001445	-2.123302	-5.548009	6.045881	368.901	00:06:08.686	2024-01-18
-0.979	0.389	-9.740	-0.248347	0.228995	0.131852	-2.126662	-5.545812	6.047058	368.915	00:06:08.700	2024-01-18
-0.929	0.413	-9.732	-0.039986	0.324314	0.124005	-2.126496	-5.541439	6.048652	368.929	00:06:08.714	2024-01-18
-0.909	0.409	-9.753	0.142667	0.358335	0.123639	-2.125033	-5.537636	6.049551	368.943	00:06:08.728	2024-01-18
-0.897	0.377	-9.763	0.158742	0.267166	-0.058793	-2.122649	-5.534514	6.049470	368.957	00:06:08.742	2024-01-18
-0.870	0.377	-9.757	0.116358	0.211084	-0.162870	-2.120559	-5.532932	6.046606	368.971	00:06:08.756	2024-01-18
-0.864	0.383	-9.746	0.072580	0.169482	-0.095395	-2.120520	-5.533345	6.045953	368.985	00:06:08.770	2024-01-18
-0.870	0.381	-9.745	0.017549	0.171618	-0.018030	-2.121301	-5.534557	6.046186	368.999	00:06:08.784	2024-01-18
-0.876	0.379	-9.743	-0.037482	0.173753	0.059334	-2.122082	-5.535769	6.046418	369.013	00:06:08.798	2024-01-18
-0.882	0.377	-9.741	-0.092514	0.175889	0.136699	-2.122863	-5.536979	6.046652	369.027	00:06:08.812	2024-01-18
-0.888	0.375	-9.740	-0.147545	0.178024	0.214064	-2.123644	-5.538191	6.046883	369.041	00:06:08.826	2024-01-18
-0.894	0.373	-9.738	-0.202577	0.180160	0.291429	-2.124425	-5.539403	6.047117	369.055	00:06:08.840	2024-01-18
-0.900	0.372	-9.737	-0.257608	0.182295	0.368794	-2.125206	-5.540614	6.047349	369.069	00:06:08.854	2024-01-18
-0.885	0.372	-9.735	-0.213682	0.111095	0.380705	-2.127328	-5.541477	6.049849	369.083	00:06:08.868	2024-01-18
-0.871	0.362	-9.741	-0.212084	-0.075204	0.245614	-2.130688	-5.542582	6.053473	369.097	00:06:08.882	2024-01-18
-0.878	0.357	-9.749	-0.312735	-0.221716	0.015891	-2.135448	-5.546726	6.053647	369.111	00:06:08.896	2024-01-18
-0.869	0.374	-9.746	-0.419107	-0.408937	-0.122895	-2.140085	-5.553760	6.052979	369.125	00:06:08.910	2024-01-18
-0.901	0.392	-9.749	-0.307489	-0.572688	-0.058066	-2.144236	-5.562215	6.052357	369.139	00:06:08.924	2024-01-18
-0.929	0.388	-9.761	-0.217160	-0.589293	-0.042025	-2.147293	-5.571330	6.052687	369.153	00:06:08.938	2024-01-18
-0.948	0.393	-9.747	-0.158289	-0.503599	-0.002960	-2.149292	-5.578587	6.052728	369.167	00:06:08.952	2024-01-18
-0.964	0.368	-9.716	-0.171466	-0.362081	-0.026066	-2.150970	-5.584255	6.053229	369.181	00:06:08.966	2024-01-18
-0.988	0.399	-9.738	-0.082142	-0.223864	0.069663	-2.152456	-5.588220	6.054412	369.195	00:06:08.980	2024-01-18
-0.994	0.331	-9.773	-0.177845	0.031635	0.202192	-2.154834	-5.584631	6.056087	369.209	00:06:08.994	2024-01-18
-0.960	0.365	-9.769	-0.131383	0.221971	0.168910	-2.157212	-5.581043	6.057761	369.223	00:06:09.008	2024-01-18
-0.927	0.397	-9.761	-0.091071	0.404865	0.152740	-2.159321	-5.577286	6.059579	369.237	00:06:09.022	2024-01-18
-0.893	0.404	-9.737	-0.033244	0.407723	0.221975	-2.159823	-5.572516	6.062259	369.251	00:06:09.036	2024-01-18
-0.881	0.364	-9.742	0.019335	0.179593	0.059676	-2.160325	-5.570800	6.062650	369.265	00:06:09.050	2024-01-18
-0.895	0.371	-9.738	-0.070095	0.021150	-0.140562	-2.160643	-5.570777	6.061352	369.279	00:06:09.064	2024-01-18
-0.927	0.363	-9.756	-0.010540	-0.018199	-0.236095	-2.160504	-5.571930	6.058122	369.293	00:06:09.078	2024-01-18
-0.947	0.339	-9.757	-0.100681	0.056419	-0.094631	-2.161974	-5.572622	6.057408	369.307	00:06:09.092	2024-01-18
-0.927	0.340	-9.743	-0.198323	0.031368	0.071993	-2.164605	-5.573176	6.058548	369.321	00:06:09.106	2024-01-18
-0.897	0.367	-9.738	-0.237573	0.007175	0.258722	-2.168422	-5.573646	6.061596	369.335	00:06:09.120	2024-01-18
-0.902	0.364	-9.737	-0.316316	-0.064353	0.234030	-2.175357	-5.579631	6.064697	369.349	00:06:09.134	2024-01-18
-0.908	0.361	-9.737	-0.395059	-0.135882	0.209337	-2.182293	-5.585616	6.067801	369.363	00:06:09.148	2024-01-18
-0.913	0.357	-9.736	-0.473802	-0.207411	0.184644	-2.189230	-5.591600	6.070904	369.377	00:06:09.162	2024-01-18
-0.918	0.354	-9.736	-0.552546	-0.278940	0.159951	-2.196166	-5.597584	6.074009	369.391	00:06:09.176	2024-01-18
-0.923	0.351	-9.735	-0.631289	-0.350469	0.135258	-2.203104	-5.603567	6.077116	369.405	00:06:09.190	2024-01-18
-0.928	0.348	-9.735	-0.710032	-0.421998	0.110565	-2.210040	-5.609550	6.080220	369.419	00:06:09.204	2024-01-18
-0.928	0.349	-9.731	-0.784464	-0.495258	0.126097	-2.216979	-5.615531	6.083329	369.433	00:06:09.218	2024-01-18
-0.942	0.365	-9.737	-0.931137	-0.473109	0.069693	-2.229974	-5.622394	6.085858	369.447	00:06:09.232	2024-01-18
-0.944	0.369	-9.753	-1.103600	-0.386638	0.318861	-2.245877	-5.628774	6.090985	369.461	00:06:09.246	2024-01-18
-0.945	0.366	-9.756	-1.299278	-0.378651	0.664412	-2.264314	-5.634309	6.099700	369.475	00:06:09.260	2024-01-18
-0.919	0.397	-9.761	-1.341219	-0.412420	0.785043	-2.284264	-5.639985	6.112058	369.489	00:06:09.274	2024-01-18
-0.934	0.403	-9.764	-1.330489	-0.450385	1.008375	-2.303569	-5.645605	6.126037	369.503	00:06:09.288	2024-01-18
-0.946	0.435	-9.737	-1.207622	-0.312019	1.097664	-2.322351	-5.650882	6.141919	369.517	00:06:09.302	2024-01-18
-0.967	0.447	-9.718	-1.194898	-0.303132	1.337475	-2.340883	-5.654363	6.161929	369.531	00:06:09.316	2024-01-18
-0.966	0.439	-9.786	-0.999761	-0.118647	1.605052	-2.357789	-5.655595	6.183036	369.545	00:06:09.330	2024-01-18
-0.980	0.337	-9.736	-1.130760	0.035386	1.329187	-2.375516	-5.655503	6.199477	369.559	00:06:09.344	2024-01-18
-0.951	0.356	-9.748	-1.355076	0.104269	0.680356	-2.396922	-5.654352	6.203156	369.573	00:06:09.358	2024-01-18
-0.937	0.374	-9.741	-1.589398	0.114367	0.041350	-2.418328	-5.653200	6.206837	369.587	00:06:09.372	2024-01-18
-0.992	0.357	-9.742	-1.705116	0.197337	-0.197425	-2.442322	-5.649747	6.209734	369.601	00:06:09.386	2024-01-18
-1.071	0.383	-9.737	-2.022530	0.566574	0.233711	-2.469768	-5.643226	6.211586	369.615	00:06:09.400	2024-01-18
-1.052	0.473	-9.742	-2.026046	1.090732	0.990472	-2.498937	-5.626342	6.227905	369.629	00:06:09.414	2024-01-18
-0.987	0.436	-9.761	-1.875643	1.415441	1.545669	-2.528433	-5.607085	6.247302	369.643	00:06:09.428	2024-01-18
-0.877	0.386	-9.742	-2.027517	1.459942	1.622778	-2.559422	-5.587066	6.268417	369.657	00:06:09.442	2024-01-18
-0.814	0.284	-9.739	-2.552318	1.084682	1.389672	-2.597918	-5.573149	6.286015	369.671	00:06:09.456	2024-01-18
-0.835	0.143	-9.749	-3.387921	0.688583	0.079616	-2.648653	-5.564457	6.282124	369.685	00:06:09.470	2024-01-18
-0.861	0.178	-9.760	-4.262399	0.458216	-1.061775	-2.708629	-5.561206	6.266515	369.699	00:06:09.484	2024-01-18
-0.859	0.273	-9.753	-4.238811	0.249999	-0.862921	-2.779460	-5.566321	6.243108	369.713	00:06:09.498	2024-01-18
-0.856	0.368	-9.746	-4.215223	0.041782	-0.664066	-2.850290	-5.571465	6.219707	369.727	00:06:09.512	2024-01-18
-0.854	0.463	-9.739	-4.191635	-0.166435	-0.465212	-2.921118	-5.576637	6.196313	369.741	00:06:09.526	2024-01-18
-0.852	0.558	-9.732	-4.168047	-0.374652	-0.266358	-2.991945	-5.581838	6.172925	369.755	00:06:09.540	2024-01-18
-0.850	0.653	-9.725	-4.144458	-0.582869	-0.067503	-3.062771	-5.587067	6.149545	369.769	00:06:09.554	2024-01-18
-0.851	0.633	-9.734	-3.876518	-0.960619	0.512829	-3.123853	-5.598583	6.150477	369.783	00:06:09.568	2024-01-18
-0.900	0.537	-9.736	-3.803778	-1.218756	1.467796	-3.178448	-5.614800	6.170162	369.797	00:06:09.582	2024-01-18
-0.954	0.425	-9.736	-4.063031	-1.256818	1.600685	-3.237925	-5.631092	6.192888	369.811	00:06:09.596	2024-01-18
-0.998	0.268	-9.735	-4.914719	-1.068087	0.661717	-3.310998	-5.645292	6.198268	369.825	00:06:09.610	2024-01-18
-0.992	0.281	-9.760	-6.163800	-0.760199	-0.947440	-3.393992	-5.657313	6.187240	369.839	00:06:09.624	2024-01-18
-0.978	0.472	-9.729	-6.956403	-0.425932	-2.581323	-3.488191	-5.665996	6.152516	369.853	00:06:09.638	2024-01-18
-0.958	0.616	-9.703	-7.282600	-0.288420	-3.025878	-3.585623	-5.672953	6.112707	369.867	00:06:09.652	2024-01-18
-0.981	0.736	-9.744	-7.028320	-0.161402	-2.717026	-3.678737	-5.678183	6.076405	369.881	00:06:09.666	2024-01-18
-0.964	0.851	-9.722	-6.254326	-0.056865	-2.159831	-3.765375	-5.681466	6.045900	369.895	00:06:09.680	2024-01-18
-0.935	0.836	-9.718	-5.593967	-0.112411	-1.835115	-3.825453	-5.685516	6.031978	369.909	00:06:09.694	2024-01-18
-0.906	0.822	-9.714	-4.933606	-0.167957	-1.510399	-3.885532	-5.689579	6.018063	369.923	00:06:09.708	2024-01-18
-0.877	0.807	-9.709	-4.273246	-0.223503	-1.185683	-3.945611	-5.693655	6.004154	369.937	00:06:09.722	2024-01-18
-0.881	0.787	-9.719	-3.705410	-0.328319	-1.219651	-4.005688	-5.697747	5.990247	369.951	00:06:09.736	2024-01-18
-0.909	0.849	-9.708	-3.112340	-0.526753	-1.938488	-4.045829	-5.706650	5.965406	369.965	00:06:09.750	2024-01-18
-0.925	0.941	-9.713	-2.060757	-0.604618	-2.155562	-4.071991	-5.717566	5.937068	369.979	00:06:09.764	2024-01-18
-0.984	0.965	-9.724	-0.967443	-0.584150	-1.920063	-4.083140	-5.728682	5.910914	369.993	00:06:09.778	2024-01-18
-1.042	0.956	-9.699	0.111930	-0.320201	-1.499860	-4.077232	-5.733209	5.892035	370.007	00:06:09.792	2024-01-18
-1.106	0.908	-9.728	1.059358	0.215684	-1.005169	-4.062190	-5.730928	5.877657	370.021	00:06:09.806	2024-01-18
-1.126	0.838	-9.728	1.688013	0.926136	-0.606460	-4.038761	-5.721036	5.867672	370.035	00:06:09.820	2024-01-18
-1.075	0.817	-9.724	2.264043	1.525206	-0.359726	-4.005134	-5.698543	5.861710	370.049	00:06:09.834	2024-01-18
-1.030	0.831	-9.721	2.860184	1.716429	-0.072761	-3.955831	-5.674979	5.861473	370.063	00:06:09.848	2024-01-18
-1.019	0.881	-9.720	3.600322	1.683672	0.411945	-3.894770	-5.650618	5.865541	370.077	00:06:09.862	2024-01-18
-1.007	0.931	-9.719	4.340460	1.650915	0.896651	-3.833710	-5.626262	5.869637	370.091	00:06:09.876	2024-01-18
-0.996	0.982	-9.718	5.080599	1.618158	1.381356	-3.772651	-5.601910	5.873759	370.105	00:06:09.890	2024-01-18
-0.984	1.032	-9.717	5.820737	1.585401	1.866063	-3.711592	-5.577563	5.877906	370.119	00:06:09.904	2024-01-18
-0.973	1.082	-9.716	6.560875	1.552644	2.350768	-3.650534	-5.553219	5.882080	370.133	00:06:09.918	2024-01-18
-1.040	0.926	-9.707	7.862395	1.839456	4.675716	-3.550093	-5.522489	5.948048	370.147	00:06:09.932	2024-01-18
-1.061	0.656	-9.739	8.406020	2.349950	6.205928	-3.442971	-5.485135	6.025767	370.161	00:06:09.946	2024-01-18
-1.029	0.415	-9.746	8.179184	3.019418	5.685198	-3.335692	-5.440336	6.105434	370.175	00:06:09.960	2024-01-18
-0.951	0.280	-9.739	7.180477	3.376972	3.965038	-3.244484	-5.390327	6.148205	370.189	00:06:09.974	2024-01-18
-0.877	0.191	-9.756	5.865818	3.544055	1.074765	-3.165407	-5.341897	6.156013	370.203	00:06:09.988	2024-01-18
-0.799	0.285	-9.754	4.601384	3.418661	-1.731753	-3.096993	-5.295855	6.135004	370.217	00:06:10.002	2024-01-18
-0.765	0.497	-9.735	4.095387	3.018001	-2.399999	-3.037785	-5.257335	6.098426	370.231	00:06:10.016	2024-01-18
-0.745	0.641	-9.722	4.270796	2.457216	-1.566970	-2.975455	-5.226056	6.079834	370.245	00:06:10.030	2024-01-18
-0.726	0.619	-9.721	4.579202	1.834097	-0.486988	-2.911732	-5.203121	6.071965	370.259	00:06:10.044	2024-01-18
-0.693	0.547	-9.729	4.466435	1.172022	-0.585956	-2.847648	-5.193814	6.072880	370.273	00:06:10.058	2024-01-18
-0.659	0.476	-9.737	4.353668	0.509945	-0.684924	-2.783564	-5.184507	6.073807	370.287	00:06:10.072	2024-01-18
-0.663	0.436	-9.742	4.219141	-0.196145	-0.764480	-2.722502	-5.183973	6.070698	370.301	00:06:10.086	2024-01-18
-0.807	0.370	-9.761	3.901019	-0.795546	-0.649075	-2.665468	-5.195123	6.062193	370.315	00:06:10.100	2024-01-18
-0.919	0.337	-9.766	3.355246	-0.658151	-0.867627	-2.618227	-5.204034	6.049141	370.329	00:06:10.114	2024-01-18
-0.921	0.504	-9.751	3.246657	-0.363950	-0.825568	-2.570952	-5.209783	6.041880	370.343	00:06:10.128	2024-01-18
-0.934	0.485	-9.740	3.382957	-0.116599	0.146147	-2.523686	-5.211999	6.041614	370.357	00:06:10.142	2024-01-18
-0.949	0.462	-9.746	3.464932	0.253414	1.088514	-2.476628	-5.207228	6.057250	370.371	00:06:10.156	2024-01-18
-0.935	0.430	-9.741	3.513199	0.593322	1.453129	-2.426594	-5.198228	6.073627	370.385	00:06:10.170	2024-01-18
-0.878	0.565	-9.747	4.029466	0.735371	1.198167	-2.365591	-5.187938	6.091279	370.399	00:06:10.184	2024-01-18
-0.850	0.604	-9.749	4.575992	0.723501	0.993829	-2.280156	-5.178649	6.111382	370.413	00:06:10.198	2024-01-18
-0.848	0.594	-9.751	4.959499	0.705621	0.664621	-2.194718	-5.169391	6.131498	370.427	00:06:10.212	2024-01-18
-0.846	0.584	-9.753	5.343007	0.687742	0.335414	-2.109279	-5.160161	6.151628	370.441	00:06:10.226	2024-01-18
-0.844	0.574	-9.755	5.726514	0.669862	0.006207	-2.023837	-5.150962	6.171772	370.455	00:06:10.240	2024-01-18
-0.842	0.564	-9.757	6.110021	0.651982	-0.323001	-1.938393	-5.141792	6.191929	370.469	00:06:10.254	2024-01-18
-0.840	0.555	-9.759	6.493528	0.634103	-0.652208	-1.852948	-5.132653	6.212100	370.483	00:06:10.268	2024-01-18
-0.838	0.545	-9.761	6.877036	0.616223	-0.981415	-1.767500	-5.123543	6.232283	370.497	00:06:10.282	2024-01-18
-0.836	0.535	-9.763	7.260543	0.598343	-1.310623	-1.682051	-5.114464	6.252481	370.511	00:06:10.296	2024-01-18
-0.915	0.238	-9.795	7.731132	0.839931	-1.324079	-1.586477	-5.104362	6.247601	370.525	00:06:10.310	2024-01-18
-0.835	0.157	-9.762	6.772290	0.779922	-0.811855	-1.488550	-5.094879	6.235693	370.539	00:06:10.324	2024-01-18
-0.773	0.183	-9.742	6.708411	0.537754	-0.231058	-1.394853	-5.088023	6.231276	370.553	00:06:10.338	2024-01-18
-0.781	0.041	-9.752	6.004141	0.250923	0.157069	-1.314961	-5.085560	6.232308	370.567	00:06:10.352	2024-01-18
-0.790	-0.037	-9.753	4.967868	0.059442	-0.023125	-1.245851	-5.085994	6.229837	370.581	00:06:10.366	2024-01-18
-0.749	-0.041	-9.752	3.979138	-0.217234	-0.680554	-1.188047	-5.089302	6.221474	370.595	00:06:10.380	2024-01-18
-0.770	-0.063	-9.754	2.889970	-0.575870	-1.407726	-1.149705	-5.099959	6.199716	370.609	00:06:10.394	2024-01-18
-0.770	-0.056	-9.750	1.850586	-0.887487	-1.573035	-1.123107	-5.113129	6.179041	370.623	00:06:10.408	2024-01-18
-0.833	-0.001	-9.757	0.891316	-1.041669	-1.347482	-1.107135	-5.128240	6.160528	370.637	00:06:10.422	2024-01-18
-0.857	0.101	-9.760	0.345911	-1.045599	-0.831482	-1.102090	-5.143646	6.150138	370.651	00:06:10.436	2024-01-18
-0.860	0.141	-9.759	0.039018	-0.995508	-0.332053	-1.100913	-5.158613	6.145312	370.665	00:06:10.450	2024-01-18
-0.870	0.121	-9.760	-0.189864	-0.965665	-0.213257	-1.102888	-5.172599	6.142177	370.679	00:06:10.464	2024-01-18
-0.898	0.107	-9.763	-0.516793	-0.840636	-0.295506	-1.108874	-5.184576	6.137707	370.693	00:06:10.478	2024-01-18
-0.898	0.101	-9.762	-0.892254	-0.667253	-0.318626	-1.120949	-5.194146	6.132287	370.707	00:06:10.492	2024-01-18
-0.882	0.134	-9.761	-1.208033	-0.534342	-0.390427	-1.136175	-5.202634	6.126464	370.721	00:06:10.506	2024-01-18
-0.865	0.152	-9.764	-1.405257	-0.491677	-0.461114	-1.154248	-5.210211	6.120319	370.735	00:06:10.520	2024-01-18
-0.857	0.154	-9.751	-1.643525	-0.544948	-0.733667	-1.176294	-5.218948	6.109364	370.749	00:06:10.534	2024-01-18
-0.872	0.148	-9.750	-1.856379	-0.579916	-0.906979	-1.206704	-5.231347	6.094347	370.763	00:06:10.548	2024-01-18
-0.858	0.167	-9.750	-2.115179	-0.703869	-1.022251	-1.243385	-5.246498	6.076291	370.777	00:06:10.562	2024-01-18
-0.839	0.190	-9.749	-2.368313	-0.849669	-1.133392	-1.280062	-5.261661	6.058242	370.791	00:06:10.576	2024-01-18
-0.819	0.212	-9.747	-2.621446	-0.995469	-1.244534	-1.316735	-5.276836	6.040204	370.805	00:06:10.590	2024-01-18
-0.799	0.235	-9.746	-2.874579	-1.141269	-1.355675	-1.353404	-5.292023	6.022175	370.819	00:06:10.604	2024-01-18
-0.780	0.257	-9.745	-3.127712	-1.287069	-1.466816	-1.390069	-5.307220	6.004155	370.833	00:06:10.618	2024-01-18
-0.766	0.282	-9.745	-3.308928	-1.489275	-1.525085	-1.426730	-5.322429	5.986144	370.847	00:06:10.632	2024-01-18
-0.805	0.297	-9.754	-3.078763	-1.929511	-1.182516	-1.465411	-5.344106	5.971391	370.861	00:06:10.646	2024-01-18
-0.863	0.260	-9.754	-3.047431	-2.153926	-0.736127	-1.506785	-5.374403	5.960986	370.875	00:06:10.660	2024-01-18
-0.913	0.214	-9.749	-3.191259	-2.099522	-0.576357	-1.551357	-5.404302	5.954175	370.889	00:06:10.674	2024-01-18
-0.931	0.217	-9.747	-3.409811	-1.950273	-0.540592	-1.597464	-5.432951	5.948605	370.903	00:06:10.688	2024-01-18
-0.898	0.404	-9.746	-3.390010	-1.923758	-0.240226	-1.642880	-5.460489	5.946393	370.917	00:06:10.702	2024-01-18
-0.936	0.495	-9.746	-2.494844	-1.906413	0.687957	-1.677258	-5.486972	5.958759	370.931	00:06:10.716	2024-01-18
-1.024	0.384	-9.758	-1.778396	-1.584223	1.021480	-1.703541	-5.507231	5.969733	370.945	00:06:10.730	2024-01-18
-1.052	0.313	-9.759	-1.495063	-0.972805	0.315846	-1.724839	-5.521749	5.975309	370.959	00:06:10.744	2024-01-18
-1.015	0.386	-9.752	-1.281423	-0.419313	-0.516616	-1.741763	-5.528144	5.968784	370.973	00:06:10.758	2024-01-18
-1.001	0.409	-9.748	-0.858258	0.023959	-0.633294	-1.747276	-5.524136	5.961172	370.987	00:06:10.772	2024-01-18
-0.992	0.416	-9.748	-0.404792	0.451113	-0.634472	-1.750889	-5.518395	5.953383	371.001	00:06:10.786	2024-01-18
-0.980	0.407	-9.750	-0.022663	0.828951	-0.446956	-1.754503	-5.512654	5.945593	371.015	00:06:10.800	2024-01-18
-0.919	0.353	-9.748	0.256979	0.915184	-0.152170	-1.750841	-5.500944	5.943164	371.029	00:06:10.814	2024-01-18
-0.857	0.296	-9.742	0.254050	0.773710	-0.238046	-1.748055	-5.491747	5.938589	371.043	00:06:10.828	2024-01-18
-0.871	0.258	-9.750	0.058108	0.561033	-0.468142	-1.746512	-5.484804	5.933019	371.057	00:06:10.842	2024-01-18
-0.885	0.301	-9.749	-0.124834	0.437964	-0.188906	-1.748504	-5.480064	5.931165	371.071	00:06:10.856	2024-01-18
-0.855	0.301	-9.733	-0.159569	0.225710	0.310853	-1.752418	-5.478219	5.934979	371.085	00:06:10.870	2024-01-18
-0.857	0.245	-9.744	-0.373881	0.009706	0.479877	-1.758571	-5.478776	5.941468	371.099	00:06:10.884	2024-01-18
-0.852	0.261	-9.753	-0.645695	-0.173340	0.521141	-1.768400	-5.482442	5.948980	371.113	00:06:10.898	2024-01-18
-0.866	0.276	-9.756	-0.687360	-0.344146	0.418699	-1.778283	-5.497447	5.949019	371.127	00:06:10.912	2024-01-18
-0.886	0.284	-9.755	-0.687826	-0.516233	0.293907	-1.788176	-5.514341	5.947815	371.141	00:06:10.926	2024-01-18
-0.906	0.293	-9.755	-0.688291	-0.688320	0.169114	-1.798067	-5.531237	5.946611	371.155	00:06:10.940	2024-01-18
-0.926	0.301	-9.755	-0.688756	-0.860407	0.044321	-1.807958	-5.548131	5.945413	371.169	00:06:10.954	2024-01-18
-0.946	0.309	-9.755	-0.689221	-1.032493	-0.080471	-1.817850	-5.565026	5.944215	371.183	00:06:10.968	2024-01-18
-0.965	0.317	-9.755	-0.689687	-1.204580	-0.205264	-1.827741	-5.581922	5.943021	371.197	00:06:10.982	2024-01-18
-0.990	0.322	-9.755	-0.658450	-1.128866	-0.211937	-1.837631	-5.598819	5.941830	371.211	00:06:10.996	2024-01-18
-1.011	0.332	-9.757	-0.678585	-0.795573	0.006025	-1.846814	-5.610250	5.943302	371.225	00:06:11.010	2024-01-18
-0.986	0.347	-9.742	-0.575604	-0.543542	0.252207	-1.855160	-5.618623	5.946822	371.239	00:06:11.024	2024-01-18
-0.951	0.339	-9.749	-0.485304	-0.431679	0.400271	-1.862130	-5.624808	5.952809	371.253	00:06:11.038	2024-01-18
-0.935	0.321	-9.742	-0.450774	-0.285347	0.361471	-1.868890	-5.629565	5.957119	371.267	00:06:11.052	2024-01-18
